 ms_accelerometer_x, ms_accelerometer_y, ms_accelerometer_z,outcome
0.96337897,0.06347656,-0.036865234,0
0.99072266,0.057617188,0.005371094,0
0.9909668,0.10839844,0.03466797,0
0.97680664,0.18457031,0.060791016,0
0.99926764,0.14331055,0.055175785,0
1.0263672,0.109375,0.048095703,0
1.0119629,0.0979004,0.048339844,0
0.99902344,0.06103516,0.07714844,0
0.99902344,0.06103516,0.07714844,0
0.9301758,-0.14135742,0.40625003,0
0.876709,-0.25976563,0.37231445,0
0.9716797,-0.07812501,0.22192383,0
1.0510254,0.028076172,0.108886726,0
1.0510254,0.028076172,0.108886726,0
1.017334,0.12597656,0.005126953,0
0.98974615,0.3352051,0.047607422,0
0.89868164,0.4919434,0.053222656,0
0.875,0.030029297,0.15136719,0
0.93627936,-0.2902832,0.14770508,0
1.1662598,-0.13256836,0.25976563,0
1.1135254,-0.20092775,0.17480469,0
1.0561523,-0.19628906,0.19482422,0
1.0651855,-0.23632813,0.19458008,0
1.0458984,-0.15063477,0.19677734,0
1.0458984,-0.15063477,0.19677734,0
0.9379883,-0.1821289,0.22192383,0
0.71533203,0.47070315,0.18603516,0
0.29736328,0.4216309,0.2060547,0
0.14575195,-0.20410156,0.47827148,0
0.532959,0.32055667,0.17626953,0
0.532959,0.32055667,0.17626953,0
0.532959,0.32055667,0.17626953,0
0.532959,0.32055667,0.17626953,0
0.7397461,0.18334962,0.16992188,0
1.1523438,-0.036132813,0.28125,0
2.1108398,-1.0168457,0.12963867,0
0.7268067,-0.2109375,0.12841797,0
0.28100586,0.6455079,0.37622073,0
0.28100586,0.6455079,0.37622073,0
1.0949707,0.3513184,0.28076172,0
0.9042969,0.17382814,0.19799806,0
0.8779297,0.4345703,0.12084961,0
0.89306647,0.36108398,0.11791992,0
0.878418,0.32934573,0.1213379,0
0.878418,0.32934573,0.1213379,0
0.8703614,0.30883792,0.11547852,0
0.88549805,0.25024414,0.0925293,0
0.9348145,0.22094727,0.083740234,0
0.96069336,0.26953125,0.24438477,0
0.9741211,0.21240234,0.19091797,0
0.9741211,0.21240234,0.19091797,0
0.8935547,0.16333008,0.20336914,0
0.8901368,0.15576172,0.21606445,0
1.1484375,0.12646484,0.19165039,0
1.2111818,0.12036133,0.20703125,0
1.0788574,0.13061523,0.24975586,0
1.0803223,0.10913086,0.23388673,0
0.94628906,0.103271484,0.19091797,0
0.9338379,0.096191406,0.21362305,0
1.1848145,0.055175785,0.14208984,0
1.1591797,0.03466797,0.11669922,0
1.0175781,0.025146484,0.116210945,0
0.9853516,0.03491211,0.112548836,0
0.97998047,0.05834961,0.10302735,0
0.9956055,0.07543945,0.097167976,0
1.0454102,0.048828125,0.092285156,0
1.0688477,-0.00390625,0.04125977,0
1.0388184,0.016601563,0.059570316,0
0.98779297,0.004394531,0.091796875,0
0.9614258,0.004394531,0.095458984,0
0.95898443,0.059570316,0.095947266,0
1.1184082,-0.010742188,0.072021484,0
0.8215332,0.072021484,0.09326172,0
0.69189453,0.08691407,0.24829102,0
0.7175293,0.17138672,0.18847658,0
0.35571292,0.108154304,0.33398438,0
0.35571292,0.108154304,0.33398438,0
0.35571292,0.108154304,0.33398438,0
0.23779297,0.0703125,0.29296875,0
0.23779297,0.0703125,0.29296875,0
0.2644043,0.16650392,0.2529297,0
0.29858398,0.12670898,0.15185548,0
0.29858398,0.12670898,0.15185548,0
0.29858398,0.12670898,0.15185548,0
0.2915039,0.004394531,0.0703125,0
0.2915039,0.004394531,0.0703125,0
0.2890625,0.11694337,0.072753906,0
0.2890625,0.11694337,0.072753906,0
0.2890625,0.11694337,0.072753906,0
0.58032227,0.20654297,0.16845703,1
0.58032227,0.20654297,0.16845703,1
0.58032227,0.20654297,0.16845703,1
0.8317871,0.20800781,0.18896484,1
1.2778322,0.30639648,0.5510254,1
0.7670899,0.34057617,0.8496094,1
0.16235352,-0.4787598,0.26538086,1
0.44921875,-0.7165528,-0.53881836,1
0.689209,-1.6711427,-0.91284186,1
0.8618164,0.095947266,-2.5136719,1
0.8618164,0.095947266,-2.5136719,1
1.9758302,0.5515137,-2.2919922,1
4.548828,0.8195801,1.6223145,1
4.928711,0.5324707,1.5439453,1
1.4716797,0.45605472,0.47949222,1
-0.59277344,0.22460938,0.09814453,1
0.9501954,0.22021484,0.8041992,1
0.9501954,0.22021484,0.8041992,1
0.9050293,0.009277344,0.72143555,1
0.6845703,0.39501953,0.1381836,1
1.2570801,0.114990234,0.6828614,1
1.3525392,0.54296875,0.72998047,1
0.86572266,-0.061523438,0.54418945,1
0.58154297,0.005371094,0.7531739,1
0.58154297,-0.13647461,0.5866699,1
0.4157715,0.2426758,0.6875,0
0.14770508,0.2775879,0.8354492,0
0.21337892,-0.044433594,0.78637695,0
0.3479004,0.11645508,0.29101563,0
0.5280762,0.60156256,0.11840821,0
0.9367676,0.16601563,0.12817383,0
1.1357422,0.47338867,1.2233887,0
0.62792975,0.41723636,0.96655273,0
0.23950195,0.34057617,0.7800293,0
0.501709,0.21166992,0.9423828,0
0.57666016,0.25561523,0.63134766,0
0.6218262,0.35937503,0.6723633,0
0.67871094,0.30615234,0.6872559,0
1.0061035,0.30200195,0.7644043,0
1.0061035,0.30200195,0.7644043,0
1.144043,0.22045898,0.4619141,0
1.144043,0.22045898,0.4619141,0
1.144043,0.22045898,0.4619141,0
1.144043,0.22045898,0.4619141,0
1.144043,0.22045898,0.4619141,0
1.144043,0.22045898,0.4619141,0
1.144043,0.22045898,0.4619141,0
1.144043,0.22045898,0.4619141,0
1.144043,0.22045898,0.4619141,0
1.0407715,0.2775879,0.5534668,0
-0.38549805,0.039062504,-0.37719727,0
-0.38549805,0.039062504,-0.37719727,0
-0.38549805,0.039062504,-0.37719727,0
-0.38549805,0.039062504,-0.37719727,0
1.1154785,0.1430664,0.31323245,0
0.9516602,0.30395508,0.22705078,0
0.9777832,0.27441406,0.13452148,0
0.96875,0.26660156,0.06225586,0
0.93310547,0.22924805,0.1657715,0
0.93310547,0.22924805,0.1657715,0
0.93310547,0.22924805,0.1657715,0
0.93310547,0.22924805,0.1657715,0
0.93310547,0.22924805,0.1657715,0
0.93310547,0.22924805,0.1657715,0
0.93310547,0.22924805,0.1657715,0
0.93310547,0.22924805,0.1657715,0
0.93310547,0.22924805,0.1657715,0
0.93310547,0.22924805,0.1657715,0
0.93310547,0.22924805,0.1657715,0
0.8149414,0.25219727,0.1159668,0
0.9790039,0.18774416,0.16455078,0
0.95288086,0.31445313,0.2619629,0
2.1132813,-0.76928717,0.19848633,0
0.02246094,-0.34057617,1.1569824,0
-0.45996094,0.1850586,0.94189453,0
-0.78344727,1.1750488,1.288086,0
0.27661133,0.90649414,3.6862793,0
0.27661133,0.90649414,3.6862793,0
0.8083496,2.697998,5.119629,0
1.0961914,-0.9074707,0.004882813,0
1.9562988,-2.0715332,-0.13500977,0
0.7736817,-0.18237305,-0.2553711,0
0.85839844,0.06713867,-0.16088867,0
0.8732911,-0.23120117,0.4104004,0
0.87231445,-0.060546875,0.4824219,0
0.9995117,-0.13989258,0.104003906,0
1.0957031,0.07397461,0.5292969,0
1.130127,-0.21801758,-0.017578125,0
1.0319824,0.068603516,-0.018554688,0
1.074707,0.33129883,0.1262207,0
1.1359863,0.40795898,0.42968753,0
1.1889648,0.3947754,0.031982422,0
1.1889648,0.3947754,0.031982422,0
1.2568359,-0.11914063,0.04125977,0
1.213623,-0.17260742,0.35327148,0
1.2912598,-0.35375977,0.7631836,0
1.2702637,-0.5859375,-0.09741211,0
1.2702637,-0.5859375,-0.09741211,0
1.1401367,-0.42138672,-0.33666995,0
0.9753418,-0.12670898,-0.4384766,0
0.99609375,-0.23828126,0.0078125,0
1.0361328,-0.01123047,-0.05126953,0
0.8168946,-0.053955078,0.114990234,0
0.9575196,0.36914063,0.43237305,0
0.9575196,0.36914063,0.43237305,0
0.89306647,0.6933594,0.29956055,0
0.70654297,1.1801758,0.5422363,0
0.58154297,1.3061523,1.5090332,0
0.6237793,1.3037109,1.5537109,0
0.6760254,0.4477539,1.1713867,0
0.49072266,0.01928711,1.1599121,0
0.6506348,-0.002685547,0.6901856,0
0.6220704,0.2294922,0.30029297,0
0.95898443,0.3813477,0.43017578,0
0.42407227,-0.028076172,-0.12939453,0
1.1877441,0.6320801,0.18017578,0
1.574463,-0.32177734,0.29882813,0
1.3974609,-0.45483398,-0.068115234,0
1.6496582,0.15942383,0.34155273,0
1.5144044,-0.3605957,0.09057618,0
1.6274414,-0.46411136,-0.05297852,0
1.6325684,-0.23364258,0.11376953,0
1.4873048,-0.4450684,0.2775879,0
1.2424316,-1.015625,0.68896484,0
1.447998,-0.099609375,-0.100830086,0
1.4865724,-0.01928711,-0.25317383,0
1.5288086,-0.26831055,-0.15405275,0
1.4821779,-0.48266602,-0.099609375,0
1.3742676,-0.35766602,0.12915039,0
1.3742676,-0.35766602,0.12915039,0
0.91259766,-0.003173828,-0.1640625,0
0.6330567,0.09741211,0.017578125,0
0.564209,0.006591797,-0.008544922,0
0.564209,0.006591797,-0.008544922,0
0.09204102,0.17504883,0.045898438,0
0.09204102,0.17504883,0.045898438,0
0.09204102,0.17504883,0.045898438,0
0.09204102,0.17504883,0.045898438,0
0.13500977,0.234375,-0.033691406,0
0.13500977,0.234375,-0.033691406,0
0.09082031,0.28027344,-0.0703125,0
0.09082031,0.28027344,-0.0703125,0
0.09082031,0.28027344,-0.0703125,0
0.33325195,0.4909668,0.048095703,0
0.20458986,0.25878906,-0.055908207,0
0.7236328,0.91845703,0.2685547,0
0.7236328,0.91845703,0.2685547,0
0.6899414,0.62133795,0.12524414,0
0.6970215,0.58984375,0.028320314,0
0.7004395,0.10644531,0.06567383,0
0.69897467,0.1555176,-0.13842773,0
1.1044922,0.33789063,-0.17797852,0
0.8139649,0.32421878,-0.19433595,0
0.72875977,0.29833984,-0.3803711,0
0.69531256,0.31298828,-0.59936523,0
0.736084,0.43603516,-0.72558594,0
1.284668,0.690918,0.028076172,0
1.1330566,0.8146973,0.04199219,0
1.1330566,0.8146973,0.04199219,0
1.2109375,0.68505865,0.09448242,0
1.0463867,-0.38964844,0.04931641,0
1.2446289,-0.26391602,0.124267586,0
1.1213379,0.04125977,0.068115234,0
1.1164551,0.26123047,0.10595704,0
0.94653326,0.18408205,0.18676758,0
0.9526367,0.040527347,0.07373047,0
0.97290045,0.046875,0.06567383,0
0.7937012,0.11401368,0.12768555,0
0.8549805,0.21337892,0.14477539,0
0.8549805,0.21337892,0.14477539,0
0.47485352,0.19311523,0.07299805,0
0.47485352,0.19311523,0.07299805,0
0.4020996,0.32250977,0.26708984,0
0.3820801,0.27612305,0.16796876,0
0.1953125,0.44702148,0.107910156,0
0.45703125,0.17822267,0.119873054,0
0.6965332,0.4555664,0.19897461,0
0.84521484,-0.1760254,0.42309573,0
1.1662598,-0.12939453,0.62866217,0
1.7814941,0.18603516,0.73828125,0
1.7172853,-0.009521484,0.9265137,0
1.5725098,0.0703125,0.86328125,0
1.5510255,0.63525397,1.2043457,0
1.2924806,0.42944336,1.1025391,0
1.1391602,0.48388675,1.0351563,0
0.95288086,0.5480957,0.87353516,1
0.6665039,0.2980957,0.57543945,1
0.38647464,0.3813477,0.14111328,1
0.3708496,0.27783203,0.050781254,1
0.17944336,-0.06958008,-0.34814453,1
0.12841797,0.023925783,-0.1953125,1
0.29614258,-0.17138672,0.48046875,1
0.18457031,-0.45996094,0.56030273,1
0.020751953,-0.65527344,0.41186523,1
0.189209,-0.26464844,-0.115234375,1
0.189209,-0.26464844,-0.115234375,1
0.8071289,0.12915039,-1.3493652,1
3.2155764,-2.4360352,2.1347656,1
4.708496,-1.3000488,1.2687988,1
4.708496,-1.3000488,1.2687988,1
4.2490234,0.07592774,1.6362305,1
0.9770508,0.43994144,0.7910156,1
1.078125,0.72875977,0.5007324,1
1.2138672,0.39135742,0.61840826,1
1.2138672,0.39135742,0.61840826,1
1.2138672,0.39135742,0.61840826,1
0.9506836,0.8149414,0.010742188,1
0.8833008,0.092773445,0.6130371,1
0.54785156,0.15942383,0.34350586,1
0.5732422,0.2463379,0.23706055,1
0.41992188,0.2294922,0.13964844,0
0.42211914,0.3251953,0.29370117,0
0.67187506,0.51293945,0.5661621,0
0.27563477,0.6218262,0.88378906,0
0.16357423,0.16381836,1.0895996,0
0.23535158,0.5065918,0.9201661,0
0.30541992,0.45458987,0.850586,0
0.43652344,0.5566406,0.7614746,0
0.4506836,0.57421875,0.73291016,0
0.45385745,0.54467773,0.6965332,0
0.54711914,0.4150391,0.7734375,0
0.54711914,0.4150391,0.7734375,0
0.50683594,0.65429693,0.8608399,0
0.89697266,0.38110352,0.80517584,0
1.2751465,0.18627931,0.7102051,0
1.2338868,0.2463379,0.38378906,0
1.0539551,0.06689453,-0.2944336,0
1.1782227,0.018310547,-0.66796875,0
1.1782227,0.018310547,-0.66796875,0
0.7211914,-0.19482422,-0.14257813,0
0.1821289,-0.47558594,0.7268067,0
0.1821289,-0.47558594,0.7268067,0
-0.6464844,0.20410156,2.4558105,0
-0.13647461,0.82861334,1.227295,0
1.9428712,-0.053222656,0.42114258,0
1.8679199,0.11181641,0.27124023,0
1.4895021,-0.053955078,0.30419922,0
0.86230475,0.12036133,0.12988281,0
0.86230475,0.12036133,0.12988281,0
0.8823242,0.07519532,0.19628906,0
0.9914551,0.07812501,0.1171875,0
1.0126953,0.3447266,0.17749025,0
0.9033204,0.19116211,0.28686523,0
0.86206055,0.14501953,0.18896484,0
0.8918457,0.11767579,0.25585938,0
0.9377442,0.17114258,0.20410156,0
0.9377442,0.17114258,0.20410156,0
0.904541,0.14990234,0.23828126,0
1.0632324,0.14282227,0.19604492,0
0.9077149,0.18334962,0.13964844,0
0.9077149,0.18334962,0.13964844,0
0.82275397,0.34252933,0.25927734,0
0.96899414,0.14331055,0.38012695,0
0.96899414,0.14331055,0.38012695,0
1.2236329,-0.041503906,0.2763672,0
1.2236329,-0.041503906,0.2763672,0
1.2236329,-0.041503906,0.2763672,0
0.8110352,0.1418457,0.23925781,0
0.97924805,-0.035888672,0.21508789,0
0.9509278,0.004638672,0.14355469,0
1.0039063,0.09667969,0.26171875,0
0.925293,0.28393555,0.48217773,0
0.904541,0.039062504,0.34521484,0
0.8647461,0.2043457,0.5024414,0
0.90234375,0.29858398,0.54956055,0
0.9189453,0.10571289,0.43286133,0
1.1782227,0.18579102,0.5419922,0
1.0427246,-0.005859375,0.71508795,0
0.9311524,0.29882813,0.7800293,0
0.9487305,0.42651367,0.7980957,0
1.5488282,0.08496094,0.3479004,0
1.2753906,-0.2578125,-0.08837891,0
1.1525879,-0.5734863,-0.21875,0
1.0915527,-0.5617676,-0.28857422,0
1.1196289,-0.29638672,-0.23217773,0
0.98217773,-0.34204102,-0.1237793,0
1.0534668,-0.3635254,0.10644531,0
1.1108398,-0.37426758,0.23901369,0
1.1269531,-0.048095703,0.72802734,0
0.9404297,-0.17089845,0.6779785,0
0.8852539,0.19897461,0.5800781,0
0.93603516,0.21069336,0.67822266,0
0.87060547,0.2607422,0.6154786,0
0.87060547,0.2607422,0.6154786,0
0.82666016,0.26245117,0.61840826,0
0.82666016,0.26245117,0.61840826,0
0.8635254,0.5185547,0.6828614,0
0.8635254,0.5185547,0.6828614,0
0.8635254,0.5185547,0.6828614,0
0.8635254,0.5185547,0.6828614,0
0.84814453,0.5930176,0.9201661,0
0.84814453,0.5930176,0.9201661,0
0.6921387,0.55981445,0.7910156,0
0.6921387,0.55981445,0.7910156,0
0.45336914,0.32543945,0.84375,0
0.45336914,0.32543945,0.84375,0
0.86889654,0.4084473,1.1425781,0
0.6538086,0.3981934,0.06518555,0
1.3852539,0.4440918,0.51416016,0
1.3852539,0.4440918,0.51416016,0
1.4143066,0.09033203,0.5541992,0
1.2456056,-0.013671875,0.3786621,0
1.4311523,0.24511719,0.3779297,0
1.5300293,0.026123049,0.29077148,0
1.5290529,-0.5534668,-0.19189453,0
1.513672,-0.6638184,0.12792969,0
1.2053224,-0.6525879,-0.03173828,0
1.1889648,-0.6801758,-0.085449226,0
1.1533203,-0.501709,-0.4987793,0
1.425293,-0.13208008,-0.15576172,0
1.4106445,-0.23266602,-0.09765625,0
1.3686525,-0.26245117,-0.07348633,0
1.3686525,-0.26245117,-0.07348633,0
1.3686525,-0.26245117,-0.07348633,0
0.72558594,0.002197266,0.061279297,0
0.670166,0.018310547,0.07519532,0
0.5827637,0.068603516,0.08325196,0
0.51831055,0.12402344,0.10546875,0
0.4621582,0.028320314,0.041503906,0
0.5029297,0.11401368,-0.051757813,0
0.513916,0.23388673,-0.13842773,0
0.74218756,0.29101563,-0.087890625,0
0.74218756,0.29101563,-0.087890625,0
0.42700195,0.63134766,0.068115234,0
0.4589844,0.5517578,-0.16113281,0
0.4589844,0.5517578,-0.16113281,0
0.4589844,0.5517578,-0.16113281,0
0.4589844,0.5517578,-0.16113281,0
0.4589844,0.5517578,-0.16113281,0
1.6350098,0.002441407,-0.46655273,0
1.4152832,0.38574222,-0.3112793,0
1.0727539,0.21875,-0.38916016,0
0.84619147,-0.044433594,-0.27856445,0
0.84619147,-0.044433594,-0.27856445,0
0.6188965,0.4956055,-0.29077148,0
0.60131836,0.4150391,0.12939453,0
0.90917975,1.3054199,0.11914063,0
1.1340332,0.58984375,-0.20581055,0
1.1340332,0.58984375,-0.20581055,0
1.2443848,0.7192383,-0.27685547,0
1.2443848,0.7192383,-0.27685547,0
1.2443848,0.7192383,-0.27685547,0
1.2443848,0.7192383,-0.27685547,0
1.2067872,0.6799317,-0.43896484,0
0.99731445,0.68115234,-0.12182617,0
1.0979004,0.62475586,-0.28100586,0
0.9846192,-0.023925783,-0.37890625,0
0.96362305,-0.07714844,-0.24609375,0
0.9379883,-0.05737305,-0.12109375,0
0.9472657,0.15795898,-0.099121094,0
0.99243164,0.1430664,-0.12719727,0
0.7561036,0.03515625,-0.10302735,0
0.6154786,0.08520508,-0.036865234,0
0.545166,-0.010009766,-0.033935547,0
0.59887695,0.04296875,0.00390625,0
0.8073731,0.15698244,0.08984376,0
0.83935547,0.13574219,0.16479492,0
1.1074219,0.03955078,0.10742188,0
1.20459,0.16479492,0.3586426,0
1.3200684,0.2915039,0.30371097,0
1.4128418,0.44067386,0.5078125,0
1.2507325,0.18969727,0.36108398,0
1.2507325,0.18969727,0.36108398,0
1.4194336,0.30078128,0.58691406,0
1.7050781,0.49658203,0.64501953,0
1.8901368,0.44628906,0.7248535,0
1.5446777,0.37280273,0.66918945,0
1.5478516,0.30322266,0.33984375,0
1.4406738,0.29248047,0.2993164,0
0.7465821,0.091552734,-0.025146484,1
0.62109375,0.08496094,-0.060058594,1
0.5439453,0.05419922,-0.107910156,1
-0.16040039,-0.083740234,-0.116210945,1
-0.29858398,-0.12109375,0.1496582,1
-0.29858398,-0.12109375,0.1496582,1
-0.29858398,-0.12109375,0.1496582,1
-0.23852539,-0.2277832,0.22241211,1
-0.15722656,-0.38183594,-0.020263674,1
0.31567383,-0.5053711,-0.4404297,1
0.6977539,0.028564453,-1.4902345,1
0.6977539,0.028564453,-1.4902345,1
3.336426,-2.6647952,-1.4125978,1
7.725586,-0.30224612,3.1889648,1
3.2441409,-0.39257813,1.2805176,1
0.06762695,0.8410645,0.23901369,1
1.3752443,0.97656256,0.7006836,1
1.2075197,0.7199707,0.5864258,1
1.1074219,0.6857911,0.5991211,1
1.0236816,0.55371094,0.37622073,1
0.81616217,-0.091552734,0.44384766,1
0.5163574,-0.30590823,0.30371097,1
0.47680664,0.104492195,0.39257813,1
0.4650879,0.13769531,0.328125,1
0.5280762,0.1472168,0.30981445,1
0.5661621,0.055175785,0.6000977,0
0.7604981,0.46142578,0.7368164,0
0.8239746,0.25268555,0.78881836,0
0.6196289,0.39453128,0.71972656,0
0.70751953,0.25708008,0.7404785,0
0.71240234,0.33666995,0.68188477,0
0.6772461,0.26171875,0.6489258,0
0.65771484,0.19604492,0.5756836,0
0.7268067,0.2294922,0.48388675,0
0.7504883,0.1953125,0.46435547,0
0.78125,0.15991212,0.48706055,0
0.83691406,0.20385744,0.55322266,0
0.79589844,0.20532228,0.56640625,0
0.6030274,0.21972656,0.6508789,0
0.60913086,0.2253418,0.6271973,0
0.6772461,0.22314453,0.5756836,0
0.861084,0.26757813,0.59033203,0
0.97998047,0.26831055,0.60058594,0
1.1025391,0.12353516,0.53515625,0
1.1442871,0.19140626,0.5883789,0
0.6779785,0.25585938,0.35083008,0
0.67456055,0.20703125,0.22045898,0
0.63134766,0.07104492,0.29956055,0
0.5126953,0.12451172,0.4885254,0
-0.0715332,-0.29736328,-0.31982425,0
0.018310547,-0.17797852,-0.46142578,0
0.018310547,-0.17797852,-0.46142578,0
0.9370118,0.4506836,0.30541992,0
1.8310547,0.005615235,0.32470703,0
1.7111816,0.37329105,0.3569336,0
0.96630865,0.24243164,0.3249512,0
0.99975586,0.33740237,0.24438477,0
0.9638672,0.28393555,0.29663086,0
0.9042969,0.2475586,0.1640625,0
0.92407227,0.37597656,0.21435547,0
0.9274903,0.26757813,0.3076172,0
0.9350586,0.28735352,0.15478517,0
0.9350586,0.28735352,0.15478517,0
0.9350586,0.28735352,0.15478517,0
0.9350586,0.28735352,0.15478517,0
0.9760742,0.36132813,0.14038086,0
0.9760742,0.36132813,0.14038086,0
0.9863281,0.30029297,0.11669922,0
0.9863281,0.30029297,0.11669922,0
0.9863281,0.30029297,0.11669922,0
0.9863281,0.30029297,0.11669922,0
0.93603516,0.4189453,0.17138672,0
0.93603516,0.4189453,0.17138672,0
0.9453125,0.22460938,0.15942383,0
0.9453125,0.22460938,0.15942383,0
0.9453125,0.22460938,0.15942383,0
0.9453125,0.22460938,0.15942383,0
1.0061035,0.1977539,0.17871094,0
1.0090332,0.37426758,0.16625977,0
1.0090332,0.37426758,0.16625977,0
0.98999023,0.29516602,0.18945313,0
0.70874023,0.12451172,0.34252933,0
0.9199219,0.060546875,0.4243164,0
1.0944824,0.16430666,0.52075195,0
1.0737305,0.14648438,0.5385742,0
1.0705566,0.23291016,0.7426758,0
0.944336,-0.18798828,0.68432623,0
0.91210943,-0.12036133,0.6674805,0
0.99975586,-0.28637695,0.7380371,0
1.0092773,-0.015625,0.13623047,0
1.0510254,0.021240234,-0.09472656,0
0.79492193,0.009033203,-0.24243164,0
1.0107422,-0.071777344,0.10107422,0
1.1152344,-0.21044923,0.7248535,0
1.1333008,0.15136719,0.5053711,0
1.2561035,0.29492188,0.1821289,0
1.0192871,0.040771484,-0.29345703,0
0.9140625,0.064453125,1.5146484,0
0.8444824,-0.18701173,0.88305664,0
0.9309082,-0.35913086,0.82373047,0
0.88549805,-0.1826172,0.5163574,0
0.91381836,-0.16674805,0.49438477,0
1.0776367,0.23999023,0.513916,0
1.0776367,0.23999023,0.513916,0
1.0776367,0.23999023,0.513916,0
0.61279297,0.18383789,0.22265625,0
0.6479492,0.17749025,0.25146484,0
0.6364746,0.5942383,0.8215332,0
0.6862793,0.7331543,0.9667969,0
0.5883789,0.9150391,1.3330078,0
0.5344238,0.91284186,1.3427734,0
0.5344238,0.91284186,1.3427734,0
0.49169922,0.8347168,1.5910645,0
1.003418,-0.67553717,0.6333008,0
1.2316896,0.47753906,0.43334964,0
0.4411621,0.11401368,0.030029297,0
0.33325195,0.5727539,0.25976563,0
1.2504883,0.054443363,0.38549805,0
1.4724121,0.2915039,0.28393555,0
1.5683594,0.36279297,0.018554688,0
1.5073242,0.33935547,0.1525879,0
1.5073242,0.33935547,0.1525879,0
1.5671388,-0.025390627,0.01171875,0
1.5056154,0.13598633,0.19726564,0
1.5056154,0.13598633,0.19726564,0
1.5056154,0.13598633,0.19726564,0
1.5056154,0.13598633,0.19726564,0
1.5090332,-0.51464844,-0.9208985,0
1.6174316,-0.54296875,-0.25,0
1.6730957,-0.31860352,-0.14916992,0
1.2978516,0.000732422,-0.096435554,0
1.241211,-0.006347657,-0.1159668,0
0.80493164,0.60083014,0.13867188,0
0.80493164,0.60083014,0.13867188,0
0.5300293,0.25268555,0.24389648,0
0.5300293,0.25268555,0.24389648,0
0.5300293,0.25268555,0.24389648,0
0.5300293,0.25268555,0.24389648,0
0.5300293,0.25268555,0.24389648,0
0.42504883,0.11743164,-0.12524414,0
0.63549805,0.3044434,-0.16870119,0
0.54296875,-0.03564453,-0.1262207,0
0.54296875,-0.03564453,-0.1262207,0
0.44604492,-0.18701173,-0.30981445,0
0.37597656,-0.18310547,-0.26513672,0
1.293457,-0.000244141,0,0
2.0266113,0.6030274,0.40893555,0
1.6633301,0.9106446,0.22265625,0
1.4240723,0.5756836,0.048095703,0
0.876709,0.44091797,0.29296875,0
0.8413086,0.4411621,0.2685547,0
0.8195801,0.5805664,0.046875,0
0.7604981,0.49291992,-0.03515625,0
0.65478516,0.52734375,-0.10473633,0
0.82275397,0.63745123,-0.17651367,0
1.0393066,0.001708984,-0.09692383,0
1.0925293,-0.006103516,0.34277344,0
1.1694336,-0.18701173,0.52978516,0
1.0183105,0.28564453,0.43115237,0
1.0183105,0.28564453,0.43115237,0
1.005127,0.4658203,0.3486328,0
0.8874512,0.4645996,0.28564453,0
0.73461914,0.3515625,0.1381836,0
0.8432618,0.43041995,0.2631836,0
0.65966797,0.30981445,0.25952148,0
0.65966797,0.30981445,0.25952148,0
0.60424805,0.51904297,0.25024414,0
0.67773443,0.5559082,0.3278809,0
0.72827154,0.56640625,0.34448242,0
0.8137207,0.5673828,0.32763672,0
0.88012695,0.5588379,0.29589844,0
0.84936523,0.51708984,0.30224612,0
0.8671875,0.5163574,0.28710938,0
0.907959,0.5107422,0.24316406,0
0.8564454,0.51464844,0.25219727,0
0.8564454,0.51464844,0.25219727,0
0.8041992,0.4440918,0.16430666,0
0.90966797,0.4956055,0.16503908,0
0.9809571,0.5270996,0.22924805,0
0.8815918,0.4355469,0.21362305,0
0.6835938,0.40771487,0.18017578,0
0.64770514,0.42260742,0.17871094,0
0.48706055,0.30541992,0.13647461,0
0.47143558,0.3017578,0.12792969,0
0.4655762,0.39379886,0.1381836,0
0.49487308,0.43798828,0.14892578,0
0.7631836,0.3881836,0.044433594,0
0.9143067,0.4626465,0.12353516,0
1.1425781,0.5786133,0.12890625,0
1.1286621,0.63818365,0.21875,0
1.0673828,0.6564942,0.26293945,0
1.184082,0.7370606,0.32373047,0
1.0715332,0.72509766,0.40673828,0
1.0715332,0.72509766,0.40673828,0
1.1254883,0.7067871,0.4658203,0
0.9172364,0.5822754,0.33618164,0
0.76855475,0.5427246,0.41137698,1
0.70581055,0.47631836,0.49145508,1
0.5427246,0.4619141,0.3544922,1
0.2944336,0.1784668,0.31250003,1
0.20874023,0.2927246,0.20312501,1
0.14770508,0.28808594,0.2770996,1
0.1760254,-0.045410156,0.068603516,1
0.34277344,-0.47143558,-0.11206055,1
0.5070801,-0.1550293,-0.37451172,1
0.66186523,-0.20581055,-1.0600586,1
0.6933594,-0.25561523,-1.4416504,1
2.6313477,-2.1015625,1.7126465,1
4.1225586,-0.5041504,2.2695313,1
4.5666504,0.19335938,1.4394531,1
0.11303711,0.7675781,0.43969727,1
0.11303711,0.7675781,0.43969727,1
0.5866699,0.74218756,-0.052734375,1
0.38427737,0.4111328,0.3813477,1
0.38427737,0.4111328,0.3813477,1
1.2507325,0.6335449,0.57958984,1
1.2507325,0.6335449,0.57958984,1
1.2507325,0.6335449,0.57958984,1
1.2507325,0.6335449,0.57958984,1
1.2507325,0.6335449,0.57958984,1
0.8579102,0.9321289,-0.33691406,1
0.8579102,0.9321289,-0.33691406,0
0.8579102,0.9321289,-0.33691406,0
0.8579102,0.9321289,-0.33691406,0
0.53515625,0.66796875,0.0625,0
0.53515625,0.66796875,0.0625,0
0.53515625,0.66796875,0.0625,0
1.0205078,0.53930664,0.7211914,0
0.8720703,0.9123535,0.24560548,0
0.5812988,0.54663086,0.29052734,0
1.1320801,0.51464844,0.50561523,0
1.4096681,0.38085938,0.41552734,0
1.4443359,0.22460938,0.328125,0
0.9677735,-0.03881836,0.5854492,0
-0.64282227,-0.21166992,0.05297852,0
0.46948242,1.2226563,0.2602539,0
1.078125,1.1079102,0.16308594,0
2.8422852,-0.1303711,0.6303711,0
0.6694336,0.17260742,0.048583988,0
0.37060547,0.047607422,0.10009766,0
0.2529297,-0.20922852,0.08862305,0
0.51831055,-0.037109375,0.048339844,0
0.64843756,0.028320314,0.11645508,0
1.1022949,0.23632813,0.41430667,0
1.3720703,0.1418457,0.40576172,0
1.4165039,0.03100586,0.32910156,0
1.3198242,0.1159668,0.32373047,0
1.1606445,0.1381836,0.265625,0
0.97290045,0.20043945,0.23803711,0
0.8806153,0.22265625,0.20117188,0
0.8806153,0.22265625,0.20117188,0
0.8806153,0.22265625,0.20117188,0
1.0253906,0.13598633,0.26000977,0
0.94921875,0.1850586,0.15600586,0
0.96069336,0.18945313,0.1315918,0
1.0161133,0.22827148,0.38378906,0
1.0083008,0.24145508,0.3076172,0
1.0830078,0.07666016,0.25073242,0
1.0490723,0.19921875,0.24560548,0
1.0490723,0.19921875,0.24560548,0
1.0490723,0.19921875,0.24560548,0
0.9040528,-0.06323242,0.28759766,0
0.921875,0.2487793,0.17919922,0
1.0236816,-0.068359375,0.30664065,0
1.012207,-0.06347656,0.26660156,0
0.9526367,0.08276367,0.26049805,0
1.0773926,0.037109375,0.21313477,0
0.8803711,0.020996096,0.4658203,0
0.9020996,-0.0769043,0.26245117,0
0.80883795,-0.01977539,0.33007815,0
1.0419922,0.14770508,0.3635254,0
0.7145996,0.328125,0.57470703,0
1.0808105,0.23974611,0.6103516,0
1.0031738,0.114990234,0.58691406,0
1.0664063,0.36499023,0.7836914,0
1.0639648,-0.036132813,0.76293945,0
0.86987305,-0.32543945,0.53808594,0
0.8913574,0.26757813,0.9538575,0
1.0229492,0.057128906,0.09838867,0
0.7795411,-0.21191408,-0.05053711,0
0.8403321,-0.70214844,0.08618165,0
0.9370118,-0.33618164,0.56689453,0
0.897461,0.12182617,0.7416992,0
0.897461,0.12182617,0.7416992,0
1.2907715,0.22094727,0.35327148,0
1.2712404,0.12817383,0.3850098,0
1.270752,-0.022949219,0.5500488,0
1.1340332,-0.1875,0.23803711,0
0.9846192,-0.044189457,0.35375977,0
0.9370118,0.11279297,0.4724121,0
0.9001465,0.26391602,0.52978516,0
0.74780273,0.33984375,0.68481445,0
0.70166016,0.58496094,0.5595703,0
0.66430664,0.4189453,0.57958984,0
0.5476074,0.47924805,0.9951172,0
0.4272461,0.8796387,1.1369629,0
0.5107422,0.9082031,1.3171387,0
0.37231445,0.8212891,1.0964355,0
0.49536133,0.93334967,1.1733398,0
0.49633792,0.115722656,0.9938965,0
0.8945313,-0.06762695,0.54467773,0
1.1762695,0.014404297,0.029785158,0
1.1762695,0.014404297,0.029785158,0
0.8964844,0.30322266,0.45874023,0
0.86621094,0.12817383,-0.1809082,0
1.3464355,0.34057617,0.37451172,0
1.1477051,0.21997072,0.077392586,0
1.286377,0.31591797,0.60742193,0
1.1826172,0.2770996,0.38549805,0
1.355957,0.2890625,0.45947266,0
1.3969727,0.20971681,0.28588867,0
1.9223634,0.38598633,0.2709961,0
1.8408203,-0.20458986,0.35986328,0
1.3928224,-0.36035156,0.22851563,0
1.2885742,-0.3718262,0.080078125,0
1.3200684,-0.44360355,-0.09350587,0
1.2668458,-0.44702148,-0.3044434,0
1.0895996,0.16040039,-0.2878418,0
0.96728516,0.16430666,-0.09936524,0
1.0200195,0.03540039,-0.087890625,0
1.0029297,0.007080079,-0.08862305,0
1.0632324,0.11914063,-0.09667969,0
1.1828613,0.2705078,-0.13549805,0
0.7878418,0.36694336,-0.080566406,0
0.7136231,0.38281253,-0.09375,0
0.3344727,0.45458987,-0.124267586,0
0.10107422,0.6386719,-0.03100586,0
0.09448242,0.37255862,-0.044677734,0
0.328125,0.4553223,0.09887695,0
0.27905273,0.6096192,-0.017089844,0
0.35668945,0.45629883,-0.2529297,0
0.53515625,0.66430664,-0.19091797,0
0.77514654,0.56689453,-0.31298828,0
0.7333985,0.5366211,-0.11425781,0
0.7333985,0.5366211,-0.11425781,0
0.7333985,0.5366211,-0.11425781,0
0.7333985,0.5366211,-0.11425781,0
0.7333985,0.5366211,-0.11425781,0
1.1225586,0.5336914,0.083496094,0
1.0163574,0.52001953,0.084716804,0
0.92407227,0.34643555,0.27197266,0
0.72534186,0.010498048,-0.002197266,0
0.89404297,-0.40942383,-0.08276367,0
0.911377,-0.053955078,-0.3569336,0
0.911377,-0.053955078,-0.3569336,0
0.911377,-0.053955078,-0.3569336,0
0.7368164,0.083496094,-0.3989258,0
0.57470703,0.3383789,-0.24365234,0
0.57470703,0.3383789,-0.24365234,0
0.57470703,0.3383789,-0.24365234,0
0.9177246,0.76953125,-0.007568359,0
0.8850098,0.55688477,-0.560791,0
0.9580078,0.23876953,-0.21948242,0
1.1757813,0.19018555,-0.02709961,0
1.1245117,-0.07348633,-0.026367188,0
1.1245117,-0.07348633,-0.026367188,0
1.1245117,-0.07348633,-0.026367188,0
1.1245117,-0.07348633,-0.026367188,0
1.1245117,-0.07348633,-0.026367188,0
1.0402832,0.1472168,0.027587892,0
1.0402832,0.1472168,0.027587892,0
1.0402832,0.1472168,0.027587892,0
1.0402832,0.1472168,0.027587892,0
1.0895996,0.26049805,0.025878906,0
1.0356445,0.23974611,-0.049072266,0
0.9384766,0.23120117,-0.03930664,0
0.9384766,0.23120117,-0.03930664,0
1.1425781,0.2919922,-0.10009766,0
1.1425781,0.2919922,-0.10009766,0
1.0927734,0.31445313,-0.053466797,0
0.88647467,0.28344727,0.031982422,0
0.77978516,0.24121095,0.05004883,0
0.7141113,0.2878418,0.09033203,0
0.814209,0.29711914,0.12866211,0
0.9211426,0.37963867,0.1723633,0
0.8508301,0.41137698,0.21313477,0
0.8833008,0.47607422,0.25195313,0
1.1281738,0.5319824,0.30908203,0
1.2275391,0.5202637,0.25146484,0
1.0893555,0.5583496,0.20263672,0
0.9482422,0.61108404,0.39379886,0
0.5979004,0.6628418,0.3916016,0
0.5979004,0.6628418,0.3916016,0
0.57543945,0.40332034,0.30664065,1
0.7763672,0.4104004,0.20361328,1
0.770752,0.30249023,0.09301758,1
0.7272949,0.30981445,0.07812501,1
1.0368652,0.32006836,0.13232422,1
0.86206055,0.33007815,0.15234375,1
0.8833008,0.50756836,0.5744629,1
0.49316406,0.020996096,0.43041995,1
0.29174805,0.25048828,0.5307617,1
0.42016605,-0.49169922,0.021484375,1
0.5876465,-0.19458008,-0.19921875,1
0.5876465,-0.19458008,-0.19921875,1
3.0266116,-1.0007324,-0.13378906,1
3.1042483,-3.4516602,0.23364258,1
3.2875977,0.48632813,1.251709,1
2.7592776,0.7792969,0.63525397,1
0.38281253,1.3598634,0.18896484,1
0.20458986,0.65405273,0.18994142,1
0.52783203,-0.04248047,0.7023926,1
0.97094727,0.23657227,0.61743164,1
0.97094727,0.23657227,0.61743164,1
0.7807617,0.6027832,0.122558594,1
1.5048829,0.8244629,0.5307617,1
1.201416,0.6611328,0.4038086,1
0.8640137,-0.08032227,0.48632813,1
0.9577637,0.19213869,0.42504883,0
0.04736328,0.6198731,-0.4487305,0
0.04736328,0.6198731,-0.4487305,0
-0.04492188,0.7050781,-0.24853517,0
-0.025634766,0.6904297,-0.27661133,0
0.043457035,0.53515625,-0.1850586,0
-0.07885743,0.48510742,-0.07421875,0
-0.032958984,0.5395508,-0.10156251,0
0.14550781,0.69189453,0.04492188,0
0.23339844,0.70776373,0.06201172,0
0.24072266,1.3220215,0.119384766,0
0.55688477,1.0336914,0.096435554,0
0.58374023,1.4052736,0.030029297,0
0.66186523,1.2753906,0.010498048,0
0.6367188,1.2500001,-0.10229493,0
0.579834,1.0734863,-0.046142578,0
0.54418945,0.92041016,-0.058837894,0
0.4975586,0.88842773,-0.12548828,0
0.51123047,0.8469239,-0.14135742,0
0.5090332,0.76293945,-0.13842773,0
0.57910156,0.72143555,-0.106933594,0
0.7944336,0.7475586,-0.16748047,0
0.90625006,0.7988281,-0.25268555,0
0.85009766,0.81347656,-0.21118166,0
0.76171875,0.6911621,-0.12890625,0
0.6882324,0.6638184,-0.091552734,0
0.69555664,0.6791993,-0.083740234,0
0.6328125,0.6437988,-0.07373047,0
0.5632324,0.66528326,-0.032470703,0
0.55126953,0.70654297,-0.032470703,0
0.5644531,0.73217773,-0.05004883,0
0.61474615,0.8269043,-0.02709961,0
0.60253906,0.8674317,-0.033935547,0
0.56591797,0.90234375,0.003417969,0
0.48632813,0.9501954,0.02685547,0
0.27368164,0.93627936,-0.007080079,0
0.24511719,0.9382324,-0.015380859,0
0.2084961,0.8364258,-0.077392586,0
0.25268555,0.79174805,-0.10742188,0
0.40917972,0.6789551,-0.15185548,0
0.5734863,0.68505865,-0.18408205,0
0.5332031,0.56347656,-0.14770508,0
0.54296875,0.5439453,-0.12963867,0
0.8439942,0.644043,-0.15893555,0
0.9284668,0.65869147,-0.23657227,0
1.0158691,0.68237305,-0.13305664,0
1.1691895,1.003418,0.108154304,0
1.2687988,1.1569824,0.23657227,0
1.3571777,1.2849121,0.36938477,0
1.1484375,1.4309083,0.4987793,0
0.7304688,1.3886719,0.663086,0
0.5024414,1.2583008,0.12817383,0
0.100830086,0.8842774,-0.30029297,0
-0.20043945,0.5222168,-0.60913086,0
-0.22021484,0.3251953,-0.73486334,0
-0.21801758,0.038085938,-0.46630862,0
-0.21826172,0.0546875,-0.14624023,0
-0.21606445,0.08691407,0.06616211,1
-0.31323245,0.109375,0.34252933,1
-0.30297855,0.041503906,0.4248047,1
-0.37426758,0.060302738,0.6152344,1
-0.29589844,0.04125977,0.6035156,1
0.2426758,0.53125,1.0415039,1
0.2619629,0.047851566,0.6254883,1
0.5239258,0.3371582,0.5632324,1
1.0773926,0.32373047,0.26489258,1
0.9621582,0.4018555,-0.04663086,1
1.6569824,0.12158203,-0.40625003,1
1.7058105,1.0012207,1.0371094,1
1.6118165,0.97558594,3.3400881,1
2.5214844,1.9841309,2.1462402,1
1.4458008,0.2705078,1.0981445,1
0.62597656,1.3847657,0.4853516,1
0.20043945,1.2500001,0.39038086,1
0.61181647,0.6845703,0.25,1
0.61181647,0.6845703,0.25,1
-0.1159668,1.0876465,1.0019531,1
-0.1159668,1.0876465,1.0019531,1
-0.69799805,1.2871094,-0.12182617,1
-0.69799805,1.2871094,-0.12182617,1
-0.83862305,1.2929688,-0.60546875,1
-0.83862305,1.2929688,-0.60546875,1
0.036132813,0.9414063,0.6320801,0
0.036132813,0.9414063,0.6320801,0
-0.08691407,0.63183594,0.20703125,0
-0.21313477,0.7697754,0.6123047,0
-0.17749025,0.76855475,0.7097168,0
-0.21997072,0.97265625,0.15600586,0
-0.063964844,0.9416504,0.49047855,0
-0.10546875,0.7910156,0.7961426,0
-0.10546875,0.7910156,0.7961426,0
-0.10986328,0.8542481,0.48315433,0
-0.15332033,0.8823242,0.45361328,0
-0.18945313,0.87280273,0.46606445,0
-0.17871094,0.8681641,0.48291016,0
-0.15161133,0.9575196,0.3212891,0
-0.19335938,0.80615234,0.31542972,0
-0.25317383,0.8984375,0.21166992,0
-0.22705078,0.87524414,0.43237305,0
-0.045898438,0.9853516,0.984375,0
-0.13867188,0.76660156,0.41284183,0
-0.09936524,0.90966797,0.51293945,0
-0.14038086,0.9108887,0.47631836,0
-0.08276367,0.95678717,0.46484378,0
-0.15454102,0.86328125,0.4909668,0
-0.18286133,0.84814453,0.5275879,0
-0.20043945,0.80883795,0.46044925,0
-0.11547852,0.81591797,0.5734863,0
-0.24169922,0.8234864,0.3972168,0
-0.20043945,0.7373047,0.34155273,0
-0.16113281,0.9978028,0.4157715,0
-0.19702148,0.8879395,0.3251953,0
-0.19653322,1.0170898,0.48828128,0
-0.15966797,1.1018066,0.45507813,0
-0.3408203,0.97021484,0.1508789,0
-0.34765628,1.020752,0.3955078,0
-0.23681642,1.0644531,0.49682617,0
-0.32983398,1.059082,0.11401368,0
-0.3239746,1.2148439,-0.013183594,0
-0.27661133,1.3237305,0.2421875,0
-0.28198242,1.2937012,-0.09082031,0
-0.27197266,0.6225586,-0.11645508,0
-0.38232422,0.44287112,0.1027832,0
-0.41918945,0.32226563,0.22680664,0
-0.5957031,0.2770996,0.4182129,0
-0.63818365,0.19189453,0.3400879,0
-0.63818365,0.19189453,0.3400879,0
-0.5307617,0.77246094,0.65966797,0
-0.5395508,1.2958984,0.97949225,0
-0.5437012,0.8168946,0.7644043,0
-0.5842285,0.47436526,0.46630862,0
-0.4921875,0.66259766,0.6997071,0
-0.5534668,0.69506836,0.42968753,0
-0.532959,0.67822266,0.47094727,0
-0.5300293,0.6599121,0.4777832,0
-0.4321289,0.8378906,0.4182129,0
-0.5432129,0.6225586,0.32470703,0
-0.37402347,0.51464844,0.45654297,0
-0.36083987,0.52075195,0.81347656,0
-0.30957034,0.46679688,0.49731445,0
-0.18627931,0.85668945,0.7436524,0
-0.016357422,0.79541016,0.670166,0
-0.010498048,0.8981934,0.7597657,0
0.10595704,0.7885742,0.7380371,0
0.013916016,0.8273926,0.75219727,0
-0.036132813,0.7141113,0.7285156,0
0.10180664,0.7314453,0.8081055,0
0.07666016,0.7634278,0.8532715,0
0.14282227,0.6809082,0.9143067,0
0.19970703,0.7502442,0.9179688,0
0.62402344,0.83496094,0.90356445,0
1.0893555,0.51171875,0.75439453,0
1.0351563,0.5749512,0.73095703,0
0.97924805,0.40625003,0.32080078,0
0.9628906,0.52246094,0.039062504,0
0.9628906,0.52246094,0.039062504,0
0.7509766,0.36328125,-0.123046875,0
0.79541016,0.48876953,0.023193361,0
0.66137695,0.4038086,0.38427737,0
0.8510742,-0.28735352,0.6726075,0
0.68896484,-0.20312501,0.944336,0
0.7097168,-0.068847656,0.82177734,0
0.7326661,-0.3786621,0.9506836,0
0.6791993,-0.49023438,1.2907715,0
1.0878906,-0.27148438,0.9680176,0
1.0878906,-0.27148438,0.9680176,0
1.1367188,0.5124512,0.008544922,0
0.86523443,0.004638672,0.21679688,0
0.85961914,0.42309573,0.14282227,0
0.78808594,0.25805664,0.053222656,0
0.8803711,0.4047852,0.13110352,0
0.9328613,0.375,0.14233398,0
0.972168,0.27514648,0.068847656,0
1.0734863,0.18896484,0.104003906,0
1.0134277,0.084472656,0.12353516,0
0.9580078,0.21777345,0.0925293,0
0.9611817,0.38891602,0.14550781,0
0.95654297,0.26098633,0.18188478,0
0.8173828,-0.016357422,0.23510742,0
1.0380859,0.38549805,0.20141602,0
0.8798829,0.3083496,0.28393555,0
0.9199219,0.42871094,0.3034668,0
0.75561523,0.18359375,0.3081055,0
0.8937989,0.45703125,0.27246094,0
0.8937989,0.45703125,0.27246094,0
0.9206543,0.38647464,0.26416016,0
0.9714356,0.3815918,0.30371097,0
0.9714356,0.3815918,0.30371097,0
0.9714356,0.3815918,0.30371097,0
0.96899414,0.31640625,0.30004886,0
0.8852539,0.095458984,0.24804688,0
0.95703125,0.49389648,0.25976563,0
0.9208985,0.40991214,0.34155273,0
0.9208985,0.40991214,0.34155273,0
0.84619147,0.2409668,0.4516602,0
0.88281256,0.21679688,0.4338379,0
0.88281256,0.21679688,0.4338379,0
0.9086914,0.27319336,0.34204102,0
0.88867193,0.21459961,0.28222656,0
0.86621094,0.16943361,0.2421875,0
0.86621094,0.16943361,0.2421875,0
0.9160156,0.23413086,0.25732422,0
0.9487305,0.27905273,0.2824707,0
0.87890625,0.30126953,0.29174805,0
0.88256836,0.34106448,0.31860352,0
0.87548834,0.33081058,0.37231445,0
0.86938477,0.27514648,0.40014648,0
0.8732911,0.32836914,0.40527344,0
0.84228516,0.25610352,0.4150391,0
0.84228516,0.25610352,0.4150391,0
0.9909668,0.4050293,0.51464844,0
0.9909668,0.4050293,0.51464844,0
0.91845703,1.0480957,-0.28173828,0
0.91845703,1.0480957,-0.28173828,0
0.8647461,1.697998,-0.52001953,0
0.4111328,1.487793,-0.4216309,0
-0.018066406,-0.61206055,0.38183594,0
-0.018066406,-0.61206055,0.38183594,0
-0.16381836,0.026611328,0.07128906,0
0.046142578,-0.7409668,0.6037598,0
0.2915039,-0.7143555,0.91381836,0
0.5371094,1.1760254,-0.07421875,0
0.63745123,-0.020996096,-0.2783203,0
1.3598634,-0.42260742,0.1147461,0
1.3598634,-0.42260742,0.1147461,0
1.1271973,0.22460938,0.005126953,0
1.1271973,0.22460938,0.005126953,0
1.088623,0.108154304,0.11669922,0
1.088623,0.108154304,0.11669922,0
1.286377,-0.06738281,0.27490234,0
1.286377,-0.06738281,0.27490234,0
1.1442871,-0.23681642,0.17138672,0
1.1442871,-0.23681642,0.17138672,0
1.0876465,-0.13745117,0.17114258,0
1.0876465,-0.13745117,0.17114258,0
1.0876465,-0.13745117,0.17114258,0
0.7565918,-0.20800781,0.1147461,0
0.7565918,-0.20800781,0.1147461,0
1.1721191,0.46044925,0.041748047,0
1.2917482,0.7878418,0.39086917,0
1.3364259,0.3803711,0.38452148,0
1.7546388,-0.11694337,-0.83569336,0
1.4255371,0.9477539,0.010009766,0
0.9013672,1.2260742,-0.108154304,0
-1.1801758,0.9838868,0.52197266,0
-0.9106446,0.5358887,0.65966797,0
-1.4074708,-1.977295,1.893799,0
5.7509766,0.3249512,0.12841797,0
2.4392092,-0.12670898,0.34277344,0
0.76928717,0.28271484,0.5415039,0
1.5993654,-0.19360353,-0.48999023,0
1.5620118,-0.23364258,-0.16699219,0
1.8051759,0.30493164,0.8908692,0
1.2102051,-0.7678223,-0.0715332,0
1.2102051,-0.7678223,-0.0715332,0
1.2966309,-1.001709,-0.1953125,0
1.4555664,-0.35742188,0.115234375,0
1.616211,-0.6601563,0.21142578,0
1.7255859,0.30322266,-0.010498048,0
1.8212892,0.15356445,-0.08642578,0
1.7651367,-0.26831055,-0.099121094,0
1.2531738,0.13354492,-0.28076172,0
1.088623,-0.12207032,-0.12451172,0
0.8813477,0.18334962,-0.21533203,0
0.8813477,0.18334962,-0.21533203,0
0.50146484,-0.060302738,-0.17504883,0
0.30200195,0.07495117,-0.31616214,0
0.037109375,-0.2841797,-0.018554688,0
0.025390627,-0.85595703,-0.12011719,0
0.060546875,-0.60156256,0.009277344,0
0.2475586,1.3881836,0.15234375,0
0.12719727,0.9572754,0.34912112,0
0.19677734,0.12670898,0.006591797,0
0.5510254,0.50219727,-0.32421878,0
0.6923829,0.54345703,0.005126953,0
0.9199219,1.2167969,0.11108399,0
1.111084,0.85913086,0.5769043,0
1.0424805,0.7844238,0.57470703,0
0.723877,0.5698242,0.3786621,0
0.43066406,0.4516602,0.34912112,0
0.33984375,0.2355957,0.23632813,0
0.4814453,0.60498047,0.3813477,0
0.33544922,0.37939453,0.2355957,0
0.36010745,0.2824707,0.1274414,0
0.50756836,0.4543457,0.2919922,0
0.9423828,0.42333984,0.77197266,0
0.91210943,0.7270508,0.68798834,0
0.89404297,0.6704102,0.7182617,0
0.9001465,0.43969727,0.98974615,0
0.95971686,1.0822754,0.84545904,0
0.55371094,0.5192871,0.25073242,0
0.32421878,0.27783203,0.08862305,0
0.14526367,0.27197266,-0.047851566,0
0.06933594,0.7390137,0.039794926,0
0.40258792,0.6271973,0.27026367,0
0.5180664,0.68847656,0.1352539,0
0.5180664,0.68847656,0.1352539,0
1.0964355,0.4758301,-0.35107422,0
1.218506,0.76489264,-0.44360355,0
1.1079102,0.52197266,-0.2932129,0
1.1950684,0.7717285,0.047607422,0
1.0566406,0.88378906,0.08398438,0
0.83325195,0.7324219,0.03857422,0
0.842041,0.7963868,0.08520508,0
0.842041,0.7963868,0.08520508,0
0.7565918,0.08666992,0.33959964,0
0.7470703,0.5493164,0.17529298,0
0.6296387,0.54174805,-0.17456056,0
0.6296387,0.54174805,-0.17456056,0
0.6296387,0.54174805,-0.17456056,0
0.6296387,0.54174805,-0.17456056,0
0.48461917,0.92944336,0.08691407,0
0.8549805,0.8569336,-0.006103516,0
0.88256836,0.5283203,0.24829102,0
0.91943365,0.43798828,0.2902832,0
0.91625977,0.44311523,0.3615723,0
0.84350586,0.55126953,0.3581543,0
0.8210449,0.69824225,0.23950195,0
0.92700195,0.83520514,0.16455078,0
0.8066407,0.81225586,0.15893555,0
0.6936035,0.7663575,0.140625,0
0.60424805,0.763916,0.14160156,0
0.4621582,0.63452154,0.079833984,0
0.42358398,0.69555664,0.10620117,0
0.43725586,0.7050781,0.10205078,0
0.46166992,0.6855469,0.045166016,0
0.60449225,0.69262695,0.030029297,0
0.68872076,0.8276367,0.023925783,0
0.70874023,0.8168946,0.03466797,0
0.77246094,0.795166,0.13500977,0
0.75244147,0.689209,0.09497071,0
0.736084,0.73657227,0.14672852,0
0.72534186,0.7651367,0.16918945,0
0.7067871,0.677002,0.10522462,0
0.7446289,0.6738281,0.11547852,0
0.81811523,0.72460943,0.122558594,0
0.64282227,0.5397949,0.17968751,0
0.8339844,0.7192383,0.2578125,0
1.0144043,0.8354492,0.29516602,0
1.0439453,0.7167969,0.25732422,0
0.8208008,0.7236328,0.26367188,0
0.7043457,0.6894532,0.23461916,0
0.37573242,0.6567383,0.18530273,0
0.21777345,0.6179199,0.26953125,0
0.06689453,0.49414065,0.13745117,0
0.12036133,0.4047852,0.0690918,0
0.4921875,0.5744629,0.053466797,0
0.57836914,0.58691406,-0.053222656,0
0.7558594,0.8430176,-0.007324219,0
1.0671387,0.89501953,0.20312501,0
1.3435059,1.1591797,0.25170898,0
1.1442871,1.0615234,0.28759766,0
0.7736817,1.2426759,0.31054688,0
0.40258792,1.2797852,0.41674805,0
-0.01977539,1.2592773,0.32836914,0
-0.33764648,1.105957,0.25976563,0
-0.5053711,0.7465821,0.14697266,0
-0.5053711,0.28076172,-0.09765625,0
-0.42968753,0.092773445,-0.1315918,0
-0.30078128,-0.024414063,-0.16699219,0
-0.20385744,-0.08325196,-0.089111336,1
-0.097167976,-0.09057618,-0.19555664,1
0.5114746,0.21118166,0.7729493,1
0.5114746,0.21118166,0.7729493,1
0.8981934,0.46826172,0.69897467,1
0.8916016,0.16967773,-0.0690918,1
1.0859375,0.99316406,1.0529785,1
1.1831055,0.296875,0.38598633,1
0.8615723,0.04199219,0.15771486,1
1.9836426,1.5976563,-0.7807617,1
2.4626467,0.000488281,1.7363282,1
2.322754,-0.9152832,1.9196777,1
2.322754,-0.9152832,1.9196777,1
4.052002,0.9208985,1.2473145,1
4.052002,0.9208985,1.2473145,1
4.052002,0.9208985,1.2473145,1
4.052002,0.9208985,1.2473145,1
2.4018557,-0.70751953,-0.5734863,1
2.4018557,-0.70751953,-0.5734863,1
-0.7636719,1.9604493,0.02734375,1
-0.7636719,1.9604493,0.02734375,1
0.34570313,0.85595703,1.2705079,1
0.34570313,0.85595703,1.2705079,1
0.8330079,0.54418945,1.3041993,1
0.5449219,0.5126953,0.56933594,1
0.4553223,0.51464844,0.5473633,0
0.049072266,0.69262695,0.6135254,0
0.17993164,0.7844238,0.546875,0
0.17993164,0.7844238,0.546875,0
0.13891602,0.8234864,0.54833984,0
0.02246094,0.9348145,0.4458008,0
0.1237793,0.76660156,0.54711914,0
0.05493164,0.88378906,0.51953125,0
0.021484375,0.88647467,0.5083008,0
0.032470703,0.8391113,0.55615234,0
0.048828125,0.87158203,0.48779297,0
0.035888672,0.8605957,0.49609375,0
0.0715332,0.8486328,0.53222656,0
0.06665039,0.8811035,0.4758301,0
0.0690918,0.8876953,0.46313477,0
0.028808594,0.9445801,0.36230472,0
0.013916016,0.6677246,0.5151367,0
-0.03149414,1.1220703,0.053222656,0
0.439209,0.42602542,0.90893555,0
-0.19750977,1.0351563,0.57543945,0
-0.058105472,0.784668,0.5246582,0
0.012939453,0.92871094,0.515625,0
-0.08325196,1.0366211,0.32836914,0
0.14697266,0.85180664,0.5612793,0
0.22998047,0.86938477,0.5769043,0
0.2619629,0.7141113,0.5905762,0
0.2241211,0.7529297,0.7963868,0
0.39746097,0.6809082,0.71899414,0
0.38842773,0.82373047,0.564209,0
0.560791,0.72924805,0.5583496,0
0.47729495,0.6582031,0.40600586,0
0.9152832,0.6833496,0.51049805,0
0.65869147,0.89501953,0.5588379,0
0.65869147,0.89501953,0.5588379,0
1.0043945,0.8264161,0.60546875,0
2.0961914,0.012939453,0.001953125,0
1.795166,0.4206543,-0.021240234,0
0.99609375,0.55615234,-0.0871582,0
-0.026611328,-0.09057618,-0.35375977,0
-0.026611328,-0.09057618,-0.35375977,0
-1.0300293,-0.118896484,3.397705,0
-0.08154297,0.000488281,3.0524902,0
1.9689941,-0.56347656,-0.5864258,0
1.8930665,0.21777345,-0.48461917,0
0.7531739,0.027832031,-0.36621094,0
0.52124023,-0.421875,-0.34985355,0
0.8251953,0.24707033,0.15576172,0
1.126709,0.5234375,0.07519532,0
1.1477051,0.14111328,0.2775879,0
1.3928224,0.37304688,0.5583496,0
1.1352539,0.27148438,0.21826172,0
1.0634766,-0.007080079,-0.46020508,0
0.93896484,-0.1743164,-0.59643555,0
0.93725586,0.33544922,0.18481447,0
0.9978028,0.45971683,0.39697266,0
0.9489746,0.21997072,0.23681642,0
0.85205084,0.22216798,0.30688477,0
0.9648438,0.25683594,-0.033691406,0
1.1008301,0.048095703,-0.07446289,0
0.95678717,0.092285156,0.15063477,0
1.0512695,0.3166504,0.042724613,0
0.85913086,0.11694337,0.29785156,0
0.91284186,0.36206055,0.4104004,0
0.89941406,0.3051758,0.23022462,0
0.90356445,0.24194337,0.17993164,0
0.9423828,0.25585938,0.26635742,0
0.88012695,0.019042969,0.21166992,0
1.0493164,0.5048828,0.20825197,0
0.8833008,0.5107422,0.1340332,0
0.98681647,0.46289063,0.21020508,0
0.87597656,0.15795898,0.24169922,0
0.87231445,0.15820313,0.13330078,0
0.87231445,0.15820313,0.13330078,0
0.8925781,0.52368164,0.40771487,0
0.88940436,0.01123047,0.12890625,0
0.9948731,0.7470703,0.5678711,0
1.0209961,0.16943361,0.5065918,0
0.6767578,0.6591797,0.66430664,0
0.5136719,0.010742188,0.6413574,0
0.6328125,0.33886722,0.4787598,0
0.7531739,0.04248047,0.24584961,0
0.8432618,-0.01171875,0.21728516,0
0.81347656,0.1328125,0.883545,0
0.88842773,0.0637207,0.7907715,0
1.5390625,-0.21142578,0.6582031,0
1.5634767,-0.35229492,0.50146484,0
2.3303223,0.6340332,-0.54296875,0
2.286377,0.4753418,-0.40942383,0
1.7243652,0.40527344,-0.03955078,0
1.2509766,0.5168457,0.30737308,0
0.8486328,0.7370606,0.55322266,0
0.23999023,0.93627936,0.4350586,0
0.1496582,0.8745117,0.60083014,0
0.22167969,0.8095704,0.28564453,0
0.16235352,1.0461426,0.15966797,0
0.15112306,0.79931647,-0.14257813,0
0.16918945,0.9855957,-0.33227542,0
0.24780275,1.394043,-0.25146484,0
0.27026367,0.62109375,-0.2763672,0
0.5148926,0.5410156,-0.15112306,0
0.6911621,0.73193365,-0.2253418,0
1.046875,0.5751953,0.09399414,0
1.220459,0.15332033,0.24780275,0
1.6435547,0.12646484,0.2614746,0
2.0009766,0.6506348,0.59472656,0
2.1103516,0.62841797,-0.12182617,0
1.2814943,0.98999023,-0.09301758,0
1.0698242,1.2253418,0.140625,0
0.66552734,1.1264648,-0.1472168,0
0.35546875,0.26635742,-0.17260742,0
0.38989258,0.22143556,0.034179688,0
0.64282227,-0.064453125,-0.4375,0
1.065918,0.08520508,-0.27246094,0
1.065918,0.08520508,-0.27246094,0
0.9057617,-0.3955078,-0.29467773,0
1.1853027,0.07324219,-0.32910156,0
1.2319336,-0.014404297,-0.38256836,0
1.4658203,0.075683594,-0.14916992,0
1.2338868,0.4309082,-0.18383789,0
1.1606445,-0.171875,-0.2602539,0
1.0883789,0.24414064,-0.27929688,0
1.1108398,-0.04931641,-0.3447266,0
0.9577637,0.025634766,-0.40014648,0
0.944336,0.087890625,-0.3955078,0
0.944336,0.087890625,-0.3955078,0
0.56103516,-0.22680664,-0.20971681,0
0.21655273,-0.18041994,-0.036621094,0
0.36547852,-0.059814453,-0.39868164,0
0.30615234,0.17651367,-0.43725586,0
0.548584,0.39086917,-0.3635254,0
0.70581055,0.16430666,-0.45410156,0
1.2722168,0.13720703,-0.5427246,0
1.2722168,0.13720703,-0.5427246,0
1.2722168,0.13720703,-0.5427246,0
1.9387207,0.5793457,-0.42016605,0
1.9387207,0.5793457,-0.42016605,0
2.2338867,0.7807617,-0.17138672,0
2.2338867,0.7807617,-0.17138672,0
1.9694824,-0.000976563,0.14013672,0
1.9694824,-0.000976563,0.14013672,0
1.6530762,-0.000732422,0.046875,0
1.6530762,-0.000732422,0.046875,0
0.097167976,0.37329105,-0.13720703,0
0.097167976,0.37329105,-0.13720703,0
-0.020507813,0.52685547,-0.33642578,0
-0.020507813,0.52685547,-0.33642578,0
0.48632813,-0.5444336,0.05859375,0
0.48632813,-0.5444336,0.05859375,0
1.3789064,0.2529297,-0.08569336,0
1.5671388,0.71191406,-0.6506348,0
1.2995605,-0.009033203,-0.15966797,0
0.9882813,0.18334962,-0.20971681,0
0.20263672,0.44702148,0.10913086,0
0.2800293,0.38964844,0.22729494,0
0.4516602,0.37670898,0.032226563,0
0.63818365,0.18481447,-0.10546875,0
1.1638184,0.9519043,-0.7663575,0
0.79663086,0.40625003,-0.39794922,0
0.6225586,-0.013427735,-0.4584961,0
0.8681641,0.14331055,-0.5266113,0
0.9675293,0.60180664,-0.46777347,0
1.253418,0.4675293,-0.32763672,0
1.253418,0.4675293,-0.32763672,0
1.0422363,0.03759766,-0.3713379,0
0.84643555,0.15283203,-0.45971683,0
0.71606445,0.5773926,0.24291992,0
0.8347168,0.63525397,0.11767579,0
0.9604493,0.517334,0.17529298,0
0.9941407,0.40405276,0.45751956,0
1.2028809,0.6694336,0.05371094,0
1.3271484,0.01123047,0.6228028,0
0.8947754,0.47485352,0.33129883,0
0.7370606,0.84350586,0.17456056,0
0.7773438,0.8054199,0.21362305,0
0.78564453,0.5385742,0.22680664,0
0.86987305,0.47949222,0.30786133,0
0.7907715,0.3381348,0.41259766,0
0.7307129,0.26489258,0.4248047,0
0.6657715,0.34570313,0.41796878,0
0.53637695,0.53149414,0.3737793,0
0.43896484,0.5300293,0.32739258,0
0.21533203,0.7709961,0.33789063,0
0.23486328,0.8713379,0.25268555,0
0.22705078,1.1855469,0.13378906,0
0.29516602,1.2214357,0.030761719,0
0.30371097,1.2436523,-0.011962892,0
0.25805664,1.0058594,-0.06982422,0
0.3417969,1.0419922,-0.020019531,0
0.33959964,1.1166992,-0.028076172,0
0.33569336,1.2182617,-0.000488281,0
0.21459961,0.95239264,-0.1550293,0
0.40820313,0.49780276,0.2463379,0
0.24560548,0.5678711,0.16796876,0
0.22167969,0.607666,0.16821289,0
0.37329105,1.0483398,0.25390625,0
0.05371094,0.9003907,0.14990234,0
0.11303711,0.94262695,0.27392578,0
0.12158203,0.98046875,0.46777347,0
0.19189453,1.0793457,0.421875,0
0.25463867,1.0437012,0.4758301,0
0.15698244,1.0004883,0.35327148,0
-0.041015625,0.9277344,0.26904297,0
-0.015136719,0.8251953,0.27685547,0
-0.07470703,0.83325195,0.35009766,0
-0.20654297,0.98291016,0.29760742,0
-0.16748047,0.8410645,0.2890625,0
-0.26733398,0.83959967,0.29882813,0
-0.22998047,0.9086914,0.34106448,0
-0.34570313,0.8901368,0.2854004,0
-0.23681642,0.6347656,0.3015137,0
-0.26171875,1.3476563,0.019042969,0
-0.2109375,1.0285645,0.04663086,0
-0.11450195,0.8364258,0.046386722,0
0.2253418,0.8842774,0.064697266,0
-0.25317383,0.991211,-0.03173828,0
0.23828126,0.4619141,-0.10107422,0
0.23828126,0.4619141,-0.10107422,0
0.030273438,0.91870123,-0.026123049,0
0.018066406,0.93042,-0.2758789,0
-0.017822266,1.0649414,-0.42993164,0
-0.06298828,1.1188965,-0.44384766,0
-0.14208984,1.1745605,-0.4050293,0
-0.18359375,1.1916504,-0.3305664,0
-0.12988281,1.1403809,-0.2258301,0
-0.03540039,1.1044922,-0.25463867,0
-0.000488281,1.1271973,-0.37622073,0
0.08862305,1.1599121,-0.30737308,0
0.10742188,1.1486816,-0.29907227,0
0.1538086,1.095459,-0.29052734,0
0.11645508,1.0524902,-0.28222656,0
0.0456543,0.92895514,-0.28466797,0
0.025390627,0.92041016,-0.23266602,0
-0.011474609,0.9472657,-0.2084961,0
0.032958984,1.0068359,-0.011474609,0
-0.12792969,1.0754395,-0.000488281,0
-0.068847656,0.9255371,0.16894531,0
-0.12207032,0.8466797,0.39624023,0
-0.13012695,0.810791,0.39868164,0
-0.07958985,1.0554199,0.4655762,0
-0.07958985,1.0554199,0.4655762,0
-0.01928711,0.8508301,0.60449225,0
-0.24072266,0.6462403,0.56396484,0
0.12792969,1.5859375,1.1711426,0
0.2446289,0.7294922,0.7595215,0
0.096191406,0.8078613,0.45483398,0
-0.14941406,0.6311035,0.4711914,0
-0.25830078,0.34912112,0.48266602,0
-0.45458987,0.7219238,0.3017578,0
-0.3947754,0.7475586,0.29345703,0
-0.3371582,0.79492193,0.16455078,0
-0.36791992,0.68310547,0.059570316,0
-0.36791992,0.68310547,0.059570316,0
0.14941406,1.175293,-0.048828125,0
-0.34375,0.8840332,-0.1821289,0
-0.15673828,0.8269043,-0.30639648,0
-0.25195313,0.8549805,-0.30786133,0
-0.13305664,0.8625488,-0.34716797,0
-0.10742188,0.8911133,-0.40600586,0
-0.06542969,0.87597656,-0.4243164,0
-0.018310547,1.0200195,-0.56152344,0
0.15209961,1.0263672,-0.69897467,0
0.15283203,0.9506836,-0.6657715,0
0.15283203,0.9506836,-0.6657715,0
0.13745117,0.93896484,-0.7937012,0
0.16308594,0.8647461,-0.84545904,0
0.16308594,0.8647461,-0.84545904,0
0.08935547,0.70288086,-0.60815436,0
0.04931641,0.66064453,-0.5876465,0
0.068115234,0.6760254,-0.59033203,0
0.17114258,0.7668457,-0.592041,0
0.23828126,0.82861334,-0.6130371,0
0.27197266,0.8381348,-0.6169434,0
0.3286133,0.864502,-0.5358887,0
0.33203125,0.86987305,-0.45874023,0
0.29003906,0.8581543,-0.38232422,0
0.28930664,0.72265625,-0.3010254,0
0.13354492,0.49609375,-0.13623047,0
0.13354492,0.49609375,-0.13623047,0
0.0625,0.3876953,-0.06665039,0
0.0625,0.3876953,-0.06665039,0
0.12670898,0.5891113,-0.17407227,0
0.12670898,0.5891113,-0.17407227,0
0.22631836,0.93310547,-0.31811523,0
0.36621094,0.76660156,-0.34521484,0
0.36938477,0.6948242,-0.23242189,0
0.33984375,0.8093262,-0.15014648,0
0.6166992,1.6010742,-0.11645508,0
0.6166992,1.6010742,-0.11645508,0
0.5029297,1.5102539,-0.100830086,0
0.50341797,1.5449219,-0.059570316,0
0.5473633,1.3928224,-0.052246097,0
0.4580078,1.0986328,-0.0690918,0
-0.06542969,0.5253906,-0.015625,0
-0.1237793,0.38989258,-0.032958984,1
-0.37280273,0.26367188,0.060302738,1
-0.3112793,0.46044925,0.17480469,1
-0.3483887,0.50024414,0.18603516,1
-0.2006836,0.6677246,0.41186523,1
0.072753906,0.8515625,0.45776367,1
0.2841797,0.8605957,0.4777832,1
0.97387695,0.46972656,0.47314453,1
1.659668,0.7070313,0.61572266,1
1.6164551,-0.100830086,0.40966797,1
1.2094727,-0.08032227,0.0859375,1
2.4760742,1.3034669,-2.1765137,1
3.7243652,-0.5810547,1.8352052,1
3.5776367,0.032470703,2.8164065,1
0.28857422,1.3664552,1.1228027,1
0.6020508,0.2614746,0.14746094,1
-0.050781254,0.5307617,0.62524414,1
0.61206055,0.94653326,0.7211914,1
0.4243164,0.46118167,0.4724121,1
0.7175293,0.5437012,0.8564454,1
0.8041992,0.41918945,0.8513184,1
0.37451172,0.84936523,0.77490234,1
0.9882813,0.42871094,1.2009279,1
0.29589844,0.40795898,0.642334,1
0.9851074,0.57910156,1.2285156,1
0.56811523,0.45117188,1.2355957,0
-0.07397461,0.6791993,0.66845703,0
-0.4787598,0.9108887,1.2131348,0
-0.22729494,0.82495123,0.66796875,0
-0.015136719,0.8608399,0.2980957,0
0.17651367,0.9970704,0.3046875,0
0.88940436,0.5283203,0.26123047,0
1.0019531,0.5439453,0.20507813,0
0.4506836,0.68481445,0.58862305,0
0.10644531,1.0769043,0.21533203,0
0.19506837,0.9968262,0.28442383,0
0.16894531,1.0839844,0.20996094,0
0.19726564,1.0114746,0.19848633,0
0.19042969,0.96728516,0.27392578,0
0.15942383,0.9714356,0.19824219,0
0.15942383,0.9714356,0.19824219,0
0.1381836,0.97314453,0.24658203,0
0.1381836,0.97314453,0.24658203,0
0.1381836,0.97314453,0.24658203,0
0.15429688,0.9562988,0.2548828,0
0.15600586,0.95581055,0.24536133,0
0.15893555,0.95898443,0.23413086,0
0.16259766,0.958252,0.2524414,0
0.16186523,0.95898443,0.24951172,0
0.16455078,0.95996094,0.2487793,0
0.16430666,0.9677735,0.23925781,0
0.16430666,0.9677735,0.23925781,0
0.16796876,0.9650879,0.24658203,0
0.1640625,0.96362305,0.24438477,0
0.15820313,0.9526367,0.23071289,0
0.034179688,0.5600586,0.14892578,0
0.034179688,0.5600586,0.14892578,0
0.26782227,1.1540527,0.17138672,0
0.27954102,1.1140137,0.36914063,0
0.2927246,0.97583014,0.4038086,0
0.30078128,0.85937506,0.53100586,0
0.33593753,0.9069825,0.5397949,0
0.30078128,0.79248047,0.5358887,0
0.38256836,0.77783203,0.4506836,0
0.40356445,0.82495123,0.5085449,0
0.44018555,0.7380371,0.43261722,0
0.46728516,0.7109375,0.43652344,0
0.47143558,0.810791,0.56152344,0
0.47680664,0.62866217,0.5998535,0
0.47680664,0.62866217,0.5998535,0
0.61450195,0.6875,0.7302246,0
0.7441406,0.28027344,0.6496582,0
0.7441406,0.28027344,0.6496582,0
0.98242193,0.35644534,0.5415039,0
1.2277832,0.05053711,0.34765628,0
1.3659668,0.012695313,0.3249512,0
1.1337891,-0.0925293,0.4555664,0
1.1337891,-0.0925293,0.4555664,0
0.795166,-0.11303711,0.19702148,0
0.39208984,-0.28979492,0.2541504,0
0.39208984,-0.28979492,0.2541504,0
0.3149414,0.64819336,1.095459,0
0.08227539,-0.100830086,2.234375,0
0.112548836,-0.65893555,2.0725098,0
0.6479492,0.08618165,-0.25610352,0
1.0710449,-0.10864258,0.11401368,0
0.8288574,0.30493164,-0.27441406,0
0.9516602,0.44018555,-0.15942383,0
1.0090332,0.29711914,0.53808594,0
1.2626953,0.5239258,0.34619144,0
1.2104493,0.05371094,0.05053711,0
1.1452637,0.6394043,-0.13989258,0
1.0751953,0.07006836,-0.22045898,0
0.8945313,0.3447266,-0.47851563,0
0.9782715,-0.03881836,0.8408203,0
0.8984375,0.6694336,-0.12963867,0
0.95581055,0.42773438,-0.38745117,0
1.0019531,0.44360355,0.3642578,0
0.97021484,0.16064455,0.21069336,0
1.0183105,-0.03930664,0.004882813,0
1.0258789,0.45410156,-0.049072266,0
0.9538575,0.55249023,0.047607422,0
1.0605469,0.20288086,0.037353516,0
0.78881836,0.24780275,-0.06298828,0
0.9611817,0.43017578,0.2023926,0
0.9123535,0.5053711,0.004394531,0
0.96240234,0.067871094,0.004150391,0
1.0070801,0.829834,0.19506837,0
0.90991217,0.24291992,0.3149414,0
1.0258789,0.70874023,0.5095215,0
1.0788574,0.5812988,0.49829102,0
0.579834,0.3215332,0.05029297,0
1.0859375,0.5961914,0.37768558,0
0.81152344,0.07421875,0.1027832,0
1.0754395,0.71118164,0.07446289,0
1.0895996,0.60058594,-0.03857422,0
1.5441895,-0.029296875,0.8666993,0
1.4526367,-0.108154304,-0.25732422,0
1.5043945,0.32299805,-0.45043945,0
1.4882813,0.51293945,-0.5769043,0
0.9975586,-0.18286133,0.02246094,0
0.8540039,0.04321289,0.24340822,0
0.80249023,0.5119629,0.49072266,0
0.8815918,0.1826172,1.1625977,0
1.0270996,0.4926758,1.4660646,0
0.7717285,0.24121095,1.2893066,0
0.81909186,0.19873048,0.7836914,0
0.8676758,0.4758301,0.69824225,0
0.88378906,0.33496094,0.26049805,0
0.78930664,0.33251953,0.19604492,0
0.78930664,0.33251953,0.19604492,0
0.8100586,0.21704103,0.09448242,0
0.8100586,0.21704103,0.09448242,0
0.8413086,0.48217773,-0.05908203,0
0.8413086,0.48217773,-0.05908203,0
0.7399903,0.7268067,-0.07299805,0
0.7399903,0.7268067,-0.07299805,0
0.7922363,0.93261725,0.16381836,0
0.7922363,0.93261725,0.16381836,0
0.84887695,0.56347656,0.10058594,0
0.6437988,0.36694336,0.17749025,0
0.6437988,0.36694336,0.17749025,0
0.6499024,0.46630862,0.4084473,0
1.3283693,0.5029297,0.5053711,0
1.5102539,0.37817383,-0.13378906,0
1.0925293,0.16064455,0.6845703,0
1.1755371,-0.0625,0.2878418,0
1.2509766,-0.01123047,-0.30639648,0
1.0241699,-0.048339844,-0.41235352,0
0.8955078,0.06689453,-0.20117188,0
0.9746094,0.040039063,-0.13867188,0
1.2109375,0.17919922,-0.002441407,0
1.260254,0.11645508,0.030761719,0
1.2207032,0.13476563,0.08935547,0
1.1643066,0.14941406,0.025390627,0
1.0339355,0.10864258,0.014892579,0
0.9377442,0.21191408,0.06323242,0
0.8872071,0.25732422,0.07128906,0
0.7570801,0.30126953,0.021972656,0
0.57373047,0.32250977,0.06665039,0
0.42309573,0.32177734,0.084228516,0
0.46362305,0.35083008,0.040527347,0
0.5053711,0.30859375,0.057861328,0
0.61083984,0.22558594,0.06591797,0
0.6984863,0.03759766,-0.018554688,0
0.876709,0.3605957,0.29638672,0
1.092041,0.5812988,0.5187988,0
1.213379,1.0048828,0.56591797,0
1.1335449,0.8850098,0.33789063,0
1.0622559,1.6311035,0.50683594,0
0.77587897,0.6320801,0.49804688,0
0.6467285,0.82177734,-0.030273438,0
0.43310547,0.7138672,0.11547852,0
0.3881836,0.23120117,-0.125,0
0.35375977,0.34155273,0.045166016,0
0.7453613,0.6940918,-0.21582031,0
0.78833014,-0.011962892,-0.22021484,0
0.8964844,0.37768558,-0.31030276,0
0.69262695,0.122558594,-0.07836914,0
0.9909668,-0.07421875,-0.39916992,0
1.2316896,-0.07788086,-0.44018555,0
1.293213,-0.22656251,-0.2294922,0
1.3608398,-0.44750977,-0.20141602,0
1.1020508,-0.31640625,-0.14697266,0
1.005127,0.20581055,0.12109375,0
0.9343262,0.37670898,-0.40649414,0
0.86499023,0.05737305,-0.701416,0
0.97290045,1.1052246,-0.58618164,0
0.77856445,0.33618164,-0.38793948,0
1.0244141,0.58569336,-0.34619144,0
1.0244141,0.58569336,-0.34619144,0
1.1787109,0.59228516,-0.4050293,0
1.3894043,0.3417969,-0.37573242,0
1.0507813,0.14355469,-0.36767578,0
0.9685059,0.23999023,-0.3305664,0
1.0878906,0.051513676,0.04199219,0
1.126709,0.01879883,0.32348636,0
1.1130371,-0.005615235,0.45703125,0
1.2775879,0.5126953,0.44360355,0
1.1403809,0.61157227,0.31860352,0
0.90991217,0.62231445,0.16113281,0
0.87353516,1.1298828,0.08569336,0
0.80908203,0.69873047,0.10107422,0
0.83667,1.1706543,0,0
0.9743653,1.3723146,0.11669922,0
0.616211,0.34570313,0.3347168,0
0.4753418,-0.001220703,0.5241699,0
0.3071289,0.3278809,0.65502936,0
0.040771484,0.18579102,0.6557618,0
0.08496094,0.41918945,0.70947266,0
0.09472656,-0.2060547,0.7175293,0
0.060791016,0.44311523,0.5012207,0
-0.12841797,0.5554199,0.54589844,0
-0.109375,0.74609375,0.49682617,0
-0.109375,0.74609375,0.49682617,0
-0.13574219,0.8273926,0.5012207,0
-0.17871094,0.8044434,0.6064453,0
-0.43994144,0.57788086,0.70117193,0
0.33398438,1.1691895,0.80981445,0
0.44921875,0.378418,0.7604981,0
0.15893555,0.5932617,0.6696778,0
0.024902344,0.6188965,0.5246582,0
0.007568359,0.60156256,0.46166992,0
-0.044677734,0.6059571,0.40332034,0
-0.028320314,0.83227545,0.41430667,0
0.018310547,0.93627936,0.44287112,0
0.07666016,0.89990234,0.439209,0
0.06103516,1.0095215,0.38305664,0
-0.025146484,0.8535157,0.4116211,0
-0.001464844,1.0388184,0.4440918,0
0.03540039,0.9038086,0.42773438,0
0.058105472,0.8964844,0.4140625,0
0.10180664,1.0856934,0.38793948,0
0.091796875,0.8679199,0.3249512,0
0.17114258,0.9938965,0.2854004,0
0.17114258,0.9938965,0.2854004,0
0.4626465,1.0310059,0.40356445,0
0.6394043,0.94921875,0.46606445,0
0.77319336,0.93896484,0.44262695,0
0.9238282,0.8691406,0.27270508,0
0.8869629,0.7219238,0.20947266,0
0.7578125,0.6906738,0.3269043,0
0.6948242,0.5617676,0.28808594,0
0.69262695,0.6196289,0.2631836,0
0.7709961,0.7338867,0.26049805,0
0.8444824,0.5708008,0.2578125,0
0.71801764,0.5163574,0.32934573,0
0.69262695,0.5476074,0.3474121,0
0.6069336,0.53759766,0.36376956,0
0.49145508,0.5280762,0.31396487,0
0.5107422,0.7324219,0.33862305,0
0.46240234,0.8264161,0.41650394,0
0.23803711,0.83325195,0.47753906,0
0.22509767,0.93554693,0.5263672,0
0.16430666,1.0727539,0.40039065,0
0.02685547,0.92309576,0.37646484,0
-0.014648438,0.86987305,0.28686523,0
0.1652832,0.7810059,0.077392586,0
0.75146484,1.251709,0.171875,0
1.2404786,1.8249513,0.22875978,0
1.9833984,2.1958008,0.15112306,0
0.56103516,1.0175781,0.32104492,0
0.06982422,0.4621582,0.29638672,0
-0.73217773,-0.2421875,0.24902344,0
-1.1516113,-0.6904297,0.2734375,0
-0.8300782,-0.3383789,0.055664063,0
-0.6367188,0.017578125,0.05004883,0
-0.32177734,-0.084716804,0.1418457,0
-0.2492676,0.25219727,0.09033203,0
-0.07861328,0.5439453,0.24829102,0
0.532959,0.85913086,0.080566406,0
0.34570313,0.8100586,0.2512207,0
0.34570313,0.8100586,0.2512207,1
0.8364258,0.69433594,0.6437988,1
0.8364258,0.69433594,0.6437988,1
1.0793457,1.4291992,0.73559576,1
1.0793457,1.4291992,0.73559576,1
0.92309576,0.87646484,0.35644534,1
0.92309576,0.87646484,0.35644534,1
0.9790039,0.10668946,-0.13671875,1
0.9790039,0.10668946,-0.13671875,1
0.9790039,0.10668946,-0.13671875,1
0.9790039,0.10668946,-0.13671875,1
1.1933594,0.857666,-0.118896484,1
1.1933594,0.857666,-0.118896484,1
0.99633795,2.4733887,1.2683107,1
0.99633795,2.4733887,1.2683107,1
1.8791505,0.6323243,3.1149902,1
1.5700685,0.66625977,0.36328125,1
-0.06518555,0.92309576,-0.044433594,1
-0.16137697,1.0612793,0.20288086,1
-0.529541,1.034668,0.7143555,1
-0.37426758,0.92944336,0.4038086,1
-0.15185548,1.095459,0.3881836,1
-0.003417969,0.9946289,0.22631836,1
-0.003417969,0.9946289,0.22631836,1
-0.14135742,0.6398926,0.19873048,1
-0.22705078,0.84521484,0.34814453,0
-0.21313477,0.7399903,0.2258301,0
-0.16723634,0.888916,0.12792969,0
-0.43701175,0.9980469,0.37524414,0
-0.43701175,0.9980469,0.37524414,0
-0.29663086,1.1469727,0.30273438,0
-0.28222656,1.0175781,0.34204102,0
-0.08691407,0.84594727,0.34960938,0
-0.22680664,0.95678717,0.35668945,0
-0.14819336,0.95214844,0.25756836,0
-0.21289063,0.9208985,0.27026367,0
-0.22314453,0.98217773,0.19116211,0
-0.27246094,0.9272461,0.2998047,0
-0.30297855,0.897461,0.32080078,0
-0.23266602,0.9313965,0.32104492,0
-0.23803711,0.944336,0.30590823,0
-0.22973633,0.9382324,0.2253418,0
-0.23779297,0.9216309,0.3513184,0
-0.19897461,0.90527344,0.27270508,0
-0.2426758,0.9265137,0.33642578,0
-0.2553711,0.90649414,0.26831055,0
-0.24804688,0.95971686,0.30200195,0
-0.24804688,0.95971686,0.30200195,0
-0.2426758,0.91845703,0.39575195,0
-0.25097656,0.8342285,0.27319336,0
-0.34033206,0.6059571,0.19702148,0
-0.3149414,0.8879395,0.17089845,0
-0.24853517,1.0507813,0.24316406,0
-0.17773438,1.0187988,0.20971681,0
-0.17773438,1.0187988,0.20971681,0
-0.25732422,0.96313477,0.39282227,0
-0.23168947,0.8337403,0.29833984,0
-0.23876953,0.91284186,0.22924805,0
-0.1772461,0.9379883,0.4018555,0
-0.45922852,0.8535157,0.16235352,0
-0.37988284,1.0222168,0.31079102,0
-0.40063477,0.8562012,0.22851563,0
-0.3081055,1.0019531,0.17480469,0
-0.3754883,1.0078125,0.13793945,0
-0.29614258,1.0136719,0.21850587,0
-0.32568362,0.876709,0.16601563,0
-0.38256836,0.96435547,0.28466797,0
-0.34643555,0.8212891,0.3400879,0
-0.48754886,0.90917975,0.234375,0
-0.32373047,0.67480475,0.23779297,0
-0.22265625,1.1665039,0.3232422,0
-0.3100586,0.99243164,0.23974611,0
-0.24487306,1.067627,0.16870119,0
0.24365234,1.0397949,0.57373047,0
0.392334,1.0463867,0.44628906,0
0.8847656,0.92871094,0.51220703,0
-0.024414063,0.9621582,0.80590826,0
0.36108398,0.5070801,1.1149902,0
0.50878906,0.54785156,0.98339844,0
-0.33496094,0.59033203,0.5214844,0
1.0559082,1.1772461,0.71533203,0
1.5024414,0.5761719,0.11206055,0
1.9204102,0.23046875,-0.20043945,0
1.942627,-0.16870119,-1.0144043,0
1.93042,-0.4724121,-0.25952148,0
1.3498535,-0.010986328,0.0703125,0
1.0456543,-0.06933594,0.44018555,0
0.5637207,1.8288574,1.5793457,0
0.04492188,2.815918,2.522461,0
-0.10473633,2.74292,2.5646973,0
-0.10473633,2.74292,2.5646973,0
-0.1262207,0.6010742,-0.07812501,0
1.689209,-0.010009766,0.30322266,0
1.6018066,-0.21508789,-0.5854492,0
1.4367677,-0.19677734,-0.0690918,0
0.8041992,0.5625,0.25708008,0
1.1025391,0.5234375,0.29736328,0
1.0639648,0.3850098,0.30273438,0
0.95312506,0.07958985,-0.042236328,0
0.88647467,0.017089844,0.059814453,0
0.9077149,0.120605476,0.0703125,0
0.91186523,0.34912112,-0.046386722,0
0.7368164,-0.09570313,-0.06738281,0
1.1799316,0.32617188,0.6257325,0
0.9885254,0.4589844,0.7902832,0
0.9206543,0.28100586,0.38281253,0
0.9946289,0.28125,-0.10546875,0
1.0756836,0.30859375,-0.14501953,0
0.93603516,0.23071289,0.14575195,0
1.0378418,0.61181647,0.66455084,0
0.98022467,0.38232422,0.5612793,0
1.2790527,0.17578125,0.68115234,0
1.2790527,0.17578125,0.68115234,0
1.2739258,-0.099609375,0.30786133,0
1.2739258,-0.099609375,0.30786133,0
1.2236329,0.09570313,0.18383789,0
0.85253906,0.034423828,0.3701172,0
0.71215826,-0.08520508,0.33300784,0
0.6667481,0.1809082,0.077392586,0
0.58032227,0.4609375,0.096435554,0
0.5703125,0.65893555,0.1418457,0
0.4655762,0.4169922,0.29174805,0
0.59472656,0.8532715,0.6826172,0
0.5241699,0.98291016,1.1625977,0
0.6298828,1.1894531,1.36792,0
0.47387695,0.8166504,1.5407716,0
0.31567383,1.0534668,1.703125,0
0.4008789,0.6921387,1.0585938,0
1.6899414,0.15771486,0.18847658,0
1.6899414,0.15771486,0.18847658,0
1.4187012,0.3869629,0.5878906,0
1.1486816,0.43725586,0.55615234,0
1.2827148,0.5161133,0.80883795,0
1.4870605,-0.06298828,0.65136725,0
1.6655273,-0.124267586,0.024658205,0
1.5312501,-0.07763672,-0.07104492,0
1.3493652,0.021728517,-0.060546875,0
1.4187012,-0.06274414,-0.010742188,0
1.3520508,0.12841797,0.048583988,0
1.3520508,0.12841797,0.048583988,0
0.8601075,0.26660156,0.07958985,0
0.6027832,0.17260742,0.15966797,0
0.40893555,0.19799806,0.31445313,0
0.37255862,0.21459961,0.3083496,0
0.2487793,0.25683594,0.32177734,0
0.2487793,0.25683594,0.32177734,0
0.2446289,0.26171875,0.3981934,0
0.2446289,0.26171875,0.3981934,0
0.27905273,0.2175293,0.31201172,0
0.27905273,0.2175293,0.31201172,0
0.43017578,0.46044925,0.15625001,0
0.43017578,0.46044925,0.15625001,0
0.3747559,0.4956055,0.13256836,0
0.3747559,0.4956055,0.13256836,0
0.5749512,0.5336914,0.12988281,0
0.5187988,0.47924805,0.22216798,0
0.41235352,0.39453128,0.24145508,0
0.41235352,0.39453128,0.24145508,0
0.5253906,0.3110352,0.33251953,0
0.6203613,0.5415039,0.36743167,0
1.0251465,0.70166016,0.39916992,0
0.62597656,0.79907227,0.5361328,0
0.4638672,0.5944824,0.4711914,0
0.4018555,0.6677246,0.5827637,0
0.67187506,0.5124512,0.32934573,0
0.7128907,0.392334,0.3684082,0
0.7578125,0.60913086,0.33544922,0
0.83227545,0.61767584,0.21044923,0
0.63085943,0.67114264,0.25048828,0
0.58935547,0.5637207,0.2290039,0
0.3334961,0.54956055,0.14892578,0
0.45458987,0.57666016,0.19335938,0
0.52905273,0.5144043,0.20776367,0
0.4814453,0.564209,0.17822267,0
0.5510254,0.61279297,0.091796875,0
0.9995117,0.9753418,0.013671875,0
1.2575684,0.81152344,0.25024414,0
1.4472656,0.8413086,0.30664065,0
1.1303711,0.73168945,0.47802737,0
0.6862793,0.27319336,0.5119629,0
0.63134766,0.17700195,0.5280762,0
0.61499023,0.18676758,0.4572754,0
0.67211914,0.5102539,0.5288086,0
0.6303711,0.27734375,0.47607422,0
0.6604004,0.29418945,0.4350586,0
0.7717285,0.46411136,0.57470703,0
0.7910156,0.22021484,0.5349121,0
0.79492193,0.2775879,0.4626465,0
0.9182129,0.39331055,0.38110352,0
0.9414063,0.50219727,0.38623047,0
0.9265137,0.48046875,0.42211914,0
0.77197266,0.43896484,0.3310547,0
0.7351074,0.37695315,0.39135742,0
0.76660156,0.51342773,0.4318848,0
0.6845703,0.5515137,0.43627933,0
0.5866699,0.5266113,0.38378906,0
0.5629883,0.5776367,0.33276367,0
0.60180664,0.61450195,0.34960938,0
0.61279297,0.5263672,0.40063477,0
0.67529297,0.5620117,0.44067386,0
0.6621094,0.63818365,0.48022464,0
0.6237793,0.720459,0.5744629,0
0.56518555,0.756836,0.5307617,0
0.5266113,0.87939453,0.4777832,0
0.44360355,0.7934571,0.41723636,0
0.40258792,0.75244147,0.40600586,0
0.47021484,0.67944336,0.36279297,0
0.51220703,0.65502936,0.33081058,0
0.99438477,0.7597657,0.29833984,0
1.2587892,0.8212891,0.30395508,0
1.1970215,0.69873047,0.26831055,0
1.2297363,0.4121094,0.2463379,0
1.1801758,0.46362305,0.15014648,0
1.041748,0.41186523,0.12084961,0
1.0166016,0.40698245,0.087402344,0
0.8703614,0.43725586,0.002685547,0
0.84814453,0.43627933,0.009033203,0
0.897461,0.41455078,0.064453125,0
0.91967773,0.4892578,0.00390625,0
0.89624023,0.57470703,0.021728517,0
0.6196289,0.49023438,0.07763672,0
0.42871094,0.68212897,0.19848633,0
0.44384766,0.6164551,0.18823242,0
0.33325195,0.6674805,0.13427734,0
0.3051758,0.7434082,0.22827148,0
0.14770508,0.7089844,0.2902832,0
0.16870119,0.911377,0.24487306,0
0.39404297,1.2194824,0.328125,0
0.5126953,1.0742188,0.32958984,0
0.71484375,1.2280275,0.28735352,0
0.8112793,1.3239747,0.27563477,0
0.5163574,0.8310547,0.3100586,0
0.11010742,0.6237793,0.39135742,0
-0.189209,0.47558594,0.36547852,0
-0.44262695,0.23071289,0.25976563,1
-0.42578125,0.16040039,0.25390625,1
-0.3647461,0.18554689,0.17529298,1
-0.30737308,0.076416016,0.16064455,1
-0.37158203,0.12597656,0.19433595,1
-0.22314453,0.31054688,0.18823242,1
-0.016845703,0.50024414,0.21582031,1
0.1875,0.2211914,0.20532228,1
1.0910645,0.701416,-0.012207031,1
0.7033692,0.39575195,0.2492676,1
1.098877,0.48120117,0.021728517,1
2.5126953,1.2229005,1.3010254,1
2.5126953,1.2229005,1.3010254,1
2.7868652,1.3764648,3.6914063,1
0.65795904,0.9274903,1.0422363,1
1.3520508,0.8469239,0.15625001,1
1.4047852,0.9863281,0.26953125,1
0.05834961,0.546875,0.059814453,1
0.16308594,1.045166,0.13085938,1
-0.2109375,0.9670411,0.29467773,1
-0.07763672,1.140625,0.57177734,1
0.006591797,0.87353516,0.1574707,1
-0.16796876,0.93969727,-0.044677734,1
0.08862305,0.8156738,0.5656738,1
0.12939453,0.9284668,0.39746097,1
-0.004394531,0.9301758,0.35107422,0
-0.050781254,0.84277344,0.24023438,0
-0.15185548,1.0002441,0.42260742,0
-0.16040039,0.9782715,0.34985355,0
-0.17529298,0.91308594,0.31250003,0
-0.1586914,0.95288086,0.31030276,0
-0.15429688,0.96972656,0.29077148,0
-0.107910156,0.958252,0.2861328,0
-0.07348633,0.90893555,0.34912112,0
-0.0456543,0.8967286,0.33984375,0
-0.14013672,0.9641114,0.32983398,0
-0.10253906,0.9104004,0.34252933,0
-0.095458984,0.96313477,0.33789063,0
-0.104003906,0.9433594,0.28393555,0
-0.10302735,0.9572754,0.29956055,0
-0.095458984,0.9338379,0.16821289,0
-0.12084961,1.0014648,0.24804688,0
-0.06176758,0.9477539,0.33007815,0
-0.06713867,0.9448242,0.26171875,0
-0.11816406,0.9797363,0.32910156,0
-0.07470703,0.90966797,0.3381348,0
-0.1213379,0.86035156,0.33325195,0
-0.30981445,0.9448242,0.22558594,0
-0.11010742,0.9011231,0.38427737,0
-0.22802736,1.0332031,0.20898439,0
-0.16796876,0.8203125,0.40161133,0
-0.22656251,0.9904786,0.16552734,0
-0.17651367,0.8310547,0.22363283,0
-0.24169922,1.0810547,0.17260742,0
-0.19458008,0.982666,0.28833008,0
-0.19458008,0.982666,0.28833008,0
-0.17382814,0.8977051,0.34033206,0
-0.22875978,0.9851074,0.26953125,0
-0.34228516,0.98706055,0.19116211,0
-0.34228516,0.98706055,0.19116211,0
-0.3034668,0.98217773,0.23217773,0
-0.3352051,0.92993164,0.20117188,0
-0.2824707,0.9536133,0.24414064,0
-0.2824707,0.9536133,0.24414064,0
-0.32055667,0.9291992,0.1772461,0
-0.3173828,1,0.13671875,0
-0.34277344,0.98217773,0.104003906,0
-0.34277344,0.98217773,0.104003906,0
-0.28466797,0.98608404,0.16186523,0
-0.28466797,0.98608404,0.16186523,0
-0.23510742,0.9370118,0.13452148,0
-0.23510742,0.9370118,0.13452148,0
-0.28149414,0.91284186,0.13110352,0
-0.23095705,0.93334967,0.3310547,0
-0.36596683,0.9406739,0.34277344,0
-0.43725586,0.8935547,0.29223633,0
-0.24829102,0.95971686,0.30590823,0
-0.2524414,0.8808594,0.3100586,0
-0.15625001,0.9609375,0.44921875,0
0.022216797,0.9387207,0.4487305,0
0.001708984,0.8486328,0.38574222,0
0.107666016,0.8776856,0.38671875,0
0.068359375,0.88549805,0.378418,0
0.068359375,0.88549805,0.378418,0
0.047607422,0.81640625,0.45874023,0
0.14233398,0.9648438,0.52001953,0
0.29418945,1.1696777,0.52441406,0
0.421875,1.1323242,0.5378418,0
1.1533203,0.8149414,0.4926758,0
2.230713,1.3720703,0.54125977,0
2.2507324,0.96972656,0.49536133,0
1.5117188,0.3178711,-0.26391602,0
1.1445313,0.10156251,-0.4553223,0
0.49707034,0.33642578,0.044189457,0
0.22924805,0.8840332,0.02368164,0
-0.08325196,0.595459,0.70117193,0
-0.6364746,1.7775879,1.7055665,0
-0.28100586,0.09301758,1.3496095,0
1.0026855,-0.4584961,-0.40893555,0
2.1091309,0.20776367,0.3540039,0
0.5827637,0.25952148,0.23730469,0
0.65429693,0.30639648,0.1105957,0
0.92895514,0.44458008,0.42578125,0
0.98608404,0.28979492,0.4553223,0
0.78344727,0.18383789,-0.08178712,0
0.99633795,0.41357425,0.3400879,0
0.9628906,0.44067386,0.38671875,0
0.972168,0.3754883,0.23754884,0
0.9404297,1.0158691,0.92285156,0
1.0581055,0.41918945,0.47436526,0
1.0688477,0.26538086,0.36572266,0
1.3339844,0.4321289,0.2421875,0
1.6184083,-0.35424808,0.107666016,0
1.6005859,-0.20117188,-0.25439453,0
1.5971681,-0.036376953,-0.37597656,0
1.534668,0.5187988,-0.092285156,0
0.9863281,0.09082031,0.084472656,0
0.99438477,0.10986328,0.07299805,0
0.99438477,0.10986328,0.07299805,0
0.98950195,0.09497071,0.07666016,0
0.98950195,0.09497071,0.07666016,0
0.9855957,0.08837891,0.0871582,0
0.9855957,0.08837891,0.0871582,0
0.98291016,0.0913086,0.09814453,0
0.98291016,0.0913086,0.09814453,0
0.9797363,0.12158203,0.07958985,0
0.9797363,0.12158203,0.07958985,0
0.97949225,0.1274414,0.07128906,0
0.95971686,0.08251954,0.048339844,0
0.9753418,0.10742188,0.034423828,0
0.9753418,0.10742188,0.034423828,0
1.0031738,0.11914063,0.04492188,0
0.95312506,0.11328126,0.055664063,0
0.9243164,0.12207032,0.046142578,0
0.8684082,0.103271484,0.03125,0
0.9414063,0.08032227,0.007568359,0
1.1286621,0.14648438,0.05102539,0
1.1264648,0.16430666,0.06274414,0
1.0419922,0.15625001,0.061279297,0
1.0419922,0.15625001,0.061279297,0
1.0024414,0.10742188,0.03930664,0
0.98706055,0.08154297,0.013916016,0
1.0559082,0.080566406,-0.000732422,0
1.079834,0.07885743,0.003173828,0
1.0539551,0.10009766,0.004638672,0
0.9741211,0.10375977,-0.010986328,0
0.95703125,0.1171875,-0.008544922,0
0.9658203,0.112548836,0.023925783,0
0.9677735,0.115722656,0.010498048,0
0.9816895,0.060546875,0.037109375,0
1.0893555,0.04199219,0.032958984,0
1.1252441,0.023193361,0.01123047,0
0.86523443,0.036132813,0.03955078,0
0.95703125,-0.00390625,0.11791992,0
1.0664063,0.08886719,0.1586914,0
1.0725098,0.13061523,0.2060547,0
0.9645996,0.020507813,0.17138672,0
0.9094238,0.01123047,0.17529298,0
0.85839844,0.05126953,0.2915039,0
0.8234864,0.03466797,0.31958008,0
0.8054199,0.10009766,0.2541504,0
0.8203125,0.14770508,0.34448242,0
0.83203125,0.16918945,0.36669925,0
0.8408203,0.24340822,0.27441406,0
0.8474121,0.28515625,0.3239746,0
0.8376465,0.30297855,0.2998047,0
0.84179693,0.31298828,0.2783203,0
0.82666016,0.31762698,0.29858398,0
0.80517584,0.33007815,0.2763672,0
0.80126953,0.33325195,0.29052734,0
0.8095704,0.30981445,0.27246094,0
0.8066407,0.29223633,0.22607422,0
0.7905274,0.2644043,0.20800781,0
0.7905274,0.22436525,0.1977539,0
0.8327637,0.23144531,0.20117188,0
0.82250977,0.2019043,0.1784668,1
0.82177734,0.16625977,0.19482422,1
0.93603516,0.1003418,0.3413086,1
0.9267579,0.059814453,0.37329105,1
0.8681641,0.11669922,0.21411134,1
0.8637696,0.1760254,0.20092775,1
0.75170904,0.24609375,0.28393555,1
0.4318848,0.051757813,0.2548828,1
0.29296875,0.1159668,0.2697754,1
0.14868164,-0.36401367,0.28686523,1
-0.52197266,-0.4523926,0.059326172,1
-0.037841797,-0.9423828,-1.0046387,1
-0.037841797,-0.9423828,-1.0046387,1
4.983155,7.9990234,-3.0476074,1
2.5634766,1.6625977,0.14379883,1
3.5180666,2.114746,0.22338867,1
0.75244147,0.3520508,-0.17504883,1
-0.8308106,0.37109378,-0.5065918,1
-0.7597657,1.6174316,-0.5908203,1
-0.7597657,1.6174316,-0.5908203,1
-2.0549316,0.40893555,-1.5471191,1
0.025390627,0.84350586,-0.7565918,1
-0.32250977,0.13745117,-0.38989258,1
-0.09838867,0.36621094,-0.375,1
-0.08398438,0.28979492,-0.27075195,1
0.006835938,0.26513672,-0.11816406,0
-0.60449225,0.189209,-0.30224612,0
-0.6154786,0.20898439,-0.17504883,0
-0.4482422,0.48291016,-0.4477539,0
-0.3615723,0.49536133,-0.54174805,0
-0.24536133,0.5209961,-0.5576172,0
-0.27734375,0.8120117,-0.6933594,0
-0.3803711,1.1184082,-0.76171875,0
-0.0715332,1.3374023,-0.75903326,0
-0.0456543,1.5793457,-0.73828125,0
-0.22216798,0.9797363,-0.3466797,0
-0.1213379,1.0427246,-0.095214844,0
-0.20532228,1.1987305,0.052246097,0
-0.47070315,0.32177734,-0.076416016,0
-0.1459961,0.810791,0.19604492,0
-0.13891602,0.5500488,0.046875,0
-0.45971683,0.9069825,0.2553711,0
-0.35375977,1.2341309,-0.49389648,0
-0.21606445,1.2854004,-0.5488281,0
-0.33300784,0.9958496,-0.4111328,0
-0.24975586,1.0097656,-0.1784668,0
-0.27954102,1.0083008,-0.056884766,0
-0.32666016,1.128418,0.12182617,0
-0.4272461,0.79296875,0.1213379,0
-0.4272461,0.79296875,0.1213379,0
-0.3544922,0.70117193,0.115234375,0
-0.45678714,0.72534186,-0.47656253,0
0.18041994,1.0478516,-0.07128906,0
0.31274414,1.279541,0.01586914,0
0.4404297,1.3430177,-0.0871582,0
0.23876953,1.0249023,0.024902344,0
0.43066406,1.1379395,-0.14013672,0
0.29125977,1.0600586,-0.20312501,0
0.5649414,1.2585449,-0.12695313,0
0.95874023,1.4853516,0.17504883,0
0.82543945,0.9562988,0.13476563,0
0.32934573,0.7202149,-0.1171875,0
0.06689453,0.72998047,-0.17480469,0
0.008300781,0.77514654,-0.41479492,0
0.44970703,0.039062504,0.53759766,0
1.036377,-0.13549805,0.06323242,0
1.060791,0.60742193,-0.71801764,0
0.7304688,0.25463867,-0.1586914,0
0.34960938,-0.047607422,0.09423829,0
0.61376953,0.29785156,-0.57421875,0
1.1430664,-0.53027344,0.40258792,0
1.3669434,-0.22827148,-0.32055667,0
1.0866699,-0.24438477,0.13549805,0
1.0061035,-0.4926758,-0.025146484,0
1.0253906,-0.30664065,-0.050781254,0
0.96362305,-0.38549805,0.0078125,0
0.96728516,-0.48632813,0.119384766,0
0.98657227,-0.3137207,0.13305664,0
0.9748535,-0.65112305,0.19897461,0
0.98876953,-0.4416504,0.16918945,0
0.86962897,-0.27319336,0.060546875,0
1.0632324,-0.29614258,0.11181641,0
0.8310547,-0.24658203,0.12109375,0
1.2189941,-0.01928711,0.15722656,0
1.3999023,-0.008544922,0.15527344,0
1.501709,-0.05664063,0.31640625,0
1.5996094,-0.013916016,0.25732422,0
0.9309082,0.1418457,0.24560548,0
0.9309082,0.1418457,0.24560548,0
0.5344238,0.77319336,0.39990234,0
0.020507813,-0.15893555,0.36987305,0
0.020507813,-0.15893555,0.36987305,0
1.3056642,0.2055664,-1.6721191,0
3.4904785,-1.0871582,-1.977295,0
2.9177246,-0.99731445,-0.96899414,0
1.883545,0.021240234,-0.19921875,0
0.001953125,1.3459474,0.45654297,0
0.80981445,-0.47338867,0.22729494,0
1.2460938,-0.19750977,-0.73950195,0
1.0683594,0.012451172,-0.18603516,0
1.1225586,-0.2421875,-0.6872559,0
1.435791,-0.18896484,-0.21411134,0
1.3547364,-0.2709961,-0.24291992,0
1.1462402,-0.7944336,-0.54003906,0
1.4843751,-0.22070314,-0.50268555,0
1.4895021,-0.27148438,0.005371094,0
0.8740235,-0.95678717,-0.39282227,0
0.7700196,-0.6113281,-0.38232422,0
0.97387695,-0.8740235,-0.2175293,0
1.3647461,-0.52441406,-0.068359375,0
1.3095703,-0.74218756,-0.15283203,0
1.246338,-0.2006836,-0.14282227,0
1.2138672,-0.12524414,-0.104492195,0
1.237549,-0.19604492,-0.23706055,0
1.0837402,-0.002929688,-0.25756836,0
1.0837402,-0.002929688,-0.25756836,0
0.9724121,0.03051758,-0.12768555,0
0.78149414,-0.11230469,-0.053466797,0
0.59936523,-0.32421878,-0.11352539,0
0.61376953,-0.42773438,0.061279297,0
0.4516602,-0.5817871,-0.08398438,0
0.55566406,-0.37280273,-0.07861328,0
0.84594727,-1.7270508,-0.60742193,0
0.84594727,-1.7270508,-0.60742193,0
0.44555664,1.0048828,-0.28076172,0
0.4975586,0.3652344,0.012695313,0
0.77246094,-0.19311523,0.21337892,0
0.84277344,-0.032226563,0.27734375,0
0.95898443,-0.13549805,0.22827148,0
2.020996,-1.4436035,-0.14697266,0
-0.06201172,0.70654297,0.15405275,0
0.6972656,0.18334962,0.107910156,0
1.1677246,-0.29418945,0.020996096,0
0.57250977,0.5715332,0.2512207,0
0.8547363,0.45385745,0.118896484,0
0.84814453,0.46069336,0.17456056,0
0.9526367,0.40405276,0.19873048,0
1.0058594,0.54907227,0.19384766,0
0.9736329,0.46240234,0.28173828,0
0.95288086,0.39257813,0.24536133,0
0.9616699,0.43481448,0.23413086,0
0.9536133,0.42114258,0.29858398,0
0.93603516,0.34252933,0.30908203,0
0.9265137,0.2770996,0.34887695,0
0.94653326,0.2355957,0.3869629,0
0.90966797,0.21386719,0.3747559,0
0.90966797,0.21386719,0.3747559,0
0.8769532,0.10668946,0.37158203,0
0.8732911,0.08081055,0.345459,0
0.8874512,0.07348633,0.3317871,0
0.88549805,0.08764649,0.3232422,0
0.87646484,0.11230469,0.28833008,0
0.8845215,0.11816406,0.29516602,0
0.88208014,0.1484375,0.30224612,0
0.86328125,0.06933594,0.28833008,0
0.82666016,-0.029541016,0.34033206,0
0.8317871,-0.03173828,0.34277344,0
0.7871094,0.024414063,0.30615234,0
0.7871094,0.024414063,0.30615234,0
0.7634278,-0.003417969,0.31347656,0
0.7770996,-0.05419922,0.30395508,0
0.78515625,-0.056884766,0.30126953,0
0.8684082,-0.11767579,0.2770996,1
0.94213873,-0.22485352,0.20898439,1
0.92993164,-0.22656251,0.20751955,1
0.82934576,0.013183594,0.2126465,1
0.82934576,0.013183594,0.2126465,1
0.8381348,0.095947266,0.14526367,1
0.7492676,0.048095703,0.14208984,1
0.4543457,-0.10107422,-0.03881836,1
0.41796878,0.15429688,0.004882813,1
0.16772461,0.3520508,-0.018310547,1
-0.70776373,-0.6638184,-0.010742188,1
-0.9873047,0.46704105,-0.5930176,1
0.4453125,4.0161133,1.2861328,1
6.4606934,0.024658205,2.2246094,1
2.3415527,0.5258789,0.9980469,1
0.48095706,1.3215332,-0.18164063,1
0.02246094,1.3964845,0.2126465,1
-1.0788574,1.2329102,1.2478029,1
-1.1953125,1.2355957,0.63842773,1
-0.55737305,1.0432129,-0.76538086,1
-0.39135742,0.93530273,-0.9433594,1
1.0324707,1.1296387,-0.3701172,1
0.5505371,0.73217773,-0.14257813,1
0.5505371,0.73217773,-0.14257813,1
-0.3081055,0.46411136,-0.27416992,1
-0.36914063,0.39941406,-0.091552734,0
-0.28808594,0.5148926,-0.09887695,0
0.084228516,2.0061035,0.018554688,0
0.111572266,1.3310547,0.35351565,0
-0.20727539,0.44848633,0.028808594,0
-0.053222656,0.8449707,-0.16113281,0
0.1616211,1.2973633,-0.28125,0
-0.005126953,1.3186035,-0.32934573,0
-0.007568359,0.97314453,-0.20678712,0
0.124267586,1.20459,-0.1484375,0
0.07592774,0.96655273,-0.20727539,0
-0.05371094,0.70288086,-0.003417969,0
-0.11279297,0.9787598,-0.12451172,0
-0.064941406,0.8815918,-0.32226563,0
-0.024902344,1.0107422,-0.18676758,0
-0.16040039,1.1506348,-0.23681642,0
-0.14453125,1.098877,-0.26831055,0
-0.19970703,0.9892578,-0.1789551,0
-0.19970703,0.9892578,-0.1789551,0
-0.25585938,0.9516602,-0.12670898,0
-0.25585938,0.9516602,-0.12670898,0
-0.3232422,1.0419922,-0.14697266,0
-0.2697754,0.8852539,-0.2229004,0
-0.29174805,0.88208014,-0.24560548,0
-0.29052734,1.0024414,-0.24169922,0
-0.1723633,1.1779785,-0.15283203,0
-0.35302734,1.1413574,-0.08862305,0
-0.72509766,0.89941406,-0.20361328,0
-0.72509766,0.89941406,-0.20361328,0
-0.4619141,0.8869629,0.07519532,0
-0.3515625,0.5397949,0.27783203,0
-0.38989258,0.642334,-0.035888672,0
-0.2841797,0.88549805,-0.17285156,0
-0.1274414,1.1118164,-0.068359375,0
-0.1274414,1.1118164,-0.068359375,0
0.08032227,1.8066407,-0.27026367,0
-0.09570313,1.1984863,-0.080566406,0
0.007568359,1.2817383,0.3334961,0
-0.0793457,0.5012207,0.07470703,0
-0.0793457,0.5012207,0.07470703,0
0.19116211,0.72998047,0.22558594,0
0.7612305,0.19653322,0.081054695,0
0.7612305,0.19653322,0.081054695,0
0.7792969,-0.11450195,0.6398926,0
0.7792969,-0.11450195,0.6398926,0
0.67578125,0.4177246,0.4450684,0
0.67578125,0.4177246,0.4450684,0
0.9782715,0.7155762,0.34716797,0
0.9782715,0.7155762,0.34716797,0
0.28198242,0.16992188,0.12109375,0
0.21142578,0.1977539,-0.036376953,0
0.21142578,0.1977539,-0.036376953,0
1.0405273,0.43627933,-0.2536621,0
1.0405273,0.43627933,-0.2536621,0
0.7272949,0.20898439,-0.014404297,0
1.3325195,-0.42651367,0.85668945,0
0.9882813,0.10961915,-0.010742188,0
0.9882813,0.10961915,-0.010742188,0
1.0727539,-0.19042969,-0.09448242,0
1.0727539,-0.19042969,-0.09448242,0
0.91577154,-0.84179693,-0.5109863,0
1.2033691,0.041015625,-0.31958008,0
1.0754395,0.10131836,0.09423829,0
0.91284186,-0.58325195,-0.20312501,0
0.9042969,-0.6530762,-0.25854492,0
0.923584,-0.10864258,-0.36450198,0
0.91967773,-0.09838867,0.28881836,0
0.9177246,-0.8198243,-0.41967773,0
1.0405273,-0.040283203,-0.6135254,0
0.7304688,-1.2797852,0.2541504,0
0.35595703,-1.0710449,-1.4899902,0
0.67211914,-0.6638184,-0.9946289,0
0.52978516,-1.0915527,-0.5444336,0
0.4992676,-1.1010742,-0.24365234,0
0.5168457,-0.9628906,0.07128906,0
0.65429693,-1.2487793,-0.16479492,0
0.64941406,-0.7766114,-0.052246097,0
0.67846686,-0.8947754,-0.1821289,0
0.99731445,-1.0205078,-0.3681641,0
1.0114746,-1.0083008,-0.036132813,0
0.9135743,-0.96899414,-0.14868164,0
0.76586914,-0.5878906,-0.6105957,0
0.9379883,-0.68798834,-0.3278809,0
0.861084,-0.7939453,-0.23266602,0
0.77587897,-0.8552246,-0.1538086,0
0.8581543,-0.44750977,-0.006591797,0
0.62231445,-0.390625,-0.06103516,0
0.5510254,-0.5151367,-0.20947266,0
0.65185547,-0.23364258,-0.19873048,0
0.47045898,-0.37939453,-0.12280274,0
0.5571289,-0.15600586,-0.095458984,0
0.8305664,-0.026611328,-0.012695313,0
0.8173828,-0.32934573,-0.030029297,0
0.6303711,-0.17285156,-0.28173828,0
0.7104492,0.18041994,-0.560791,0
0.71191406,0.123046875,-0.6030274,0
0.6743164,0.085449226,-0.5527344,0
0.8251953,0.29467773,-0.27294922,0
0.6452637,-0.40039065,-0.17285156,0
0.8103028,0.036132813,-0.1616211,0
0.78515625,0.060058594,0.14550781,0
0.8444824,0.24121095,-0.07861328,0
0.80590826,0.46875,0.018310547,0
0.85180664,-0.038085938,0.39575195,0
1.1105957,0.03173828,0.4111328,0
1.2434083,-0.06982422,0.1508789,0
1.1005859,0.1887207,0.12158203,0
0.9499512,-0.24121095,0.30981445,0
0.95312506,-0.1262207,0.5986328,0
1.0546875,-0.06616211,0.5571289,0
1.013916,0.020751953,0.49731445,0
0.89575195,0.07299805,0.1459961,0
0.9226074,0.16699219,0.123291016,0
0.9677735,0.21044923,0.13696289,0
1.0095215,0.14379883,0.23217773,0
0.95947266,-0.013916016,0.33276367,0
0.94311523,-0.087890625,0.30200195,0
0.9609375,-0.026123049,0.28930664,0
0.9250488,0.021972656,0.28051758,0
0.9250488,0.021972656,0.28051758,0
0.90893555,0.007324219,0.2685547,0
0.864502,0.008300781,0.26635742,0
0.8647461,0.024902344,0.27270508,0
0.84594727,0.018310547,0.25073242,0
0.87255865,0.032714844,0.23242189,0
0.8876953,0.044189457,0.23828126,0
0.9038086,0.052734375,0.2512207,0
0.8991699,0.056396484,0.25146484,0
0.92993164,0.05737305,0.22802736,0
0.9301758,0.07299805,0.24682617,0
0.9150391,0.071777344,0.25463867,0
0.8798829,0.04248047,0.20922852,1
0.87622076,0.053466797,0.19384766,1
0.8095704,0.05029297,0.1875,1
0.75830084,-0.027587892,0.13476563,1
0.6936035,-0.08129883,0.08569336,1
0.62475586,-0.24365234,0.09033203,1
0.6894532,0.003173828,0.14160156,1
0.5683594,0.34619144,0.17089845,1
0.296875,-0.38378906,0.24780275,1
0.20532228,-0.19726564,0.31250003,1
0.1555176,-0.38623047,0.40332034,1
0.21679688,0.6337891,0.21459961,1
-0.09741211,0.73657227,-0.50927734,1
3.2702637,5.8623047,-2.128418,1
3.5112305,1.1550293,-0.33593753,1
4.2355957,1.8798829,2.003662,1
2.960205,1.6108398,1.4914551,1
-0.03491211,0.19384766,0.061523438,1
-0.7631836,0.1555176,-0.20336914,1
0.12670898,0.9238282,-0.68115234,1
-1.3991699,1.3249512,-0.43701175,1
-1.3203126,0.52441406,-1.4277344,1
0.52319336,1.3845215,-0.93261725,1
0.06933594,1.1799316,-0.44921875,1
-0.18139648,0.44628906,-0.27026367,1
-0.13500977,0.52685547,-0.29858398,0
-0.057617188,0.4116211,-0.3688965,0
-0.14111328,0.51220703,-0.30786133,0
-0.4272461,0.42626953,-0.33935547,0
-0.16699219,0.644043,-0.17480469,0
0.15625001,0.6936035,0.15698244,0
-0.234375,1.3913575,-0.6972656,0
-0.234375,1.3913575,-0.6972656,0
-0.21557619,0.3010254,-0.75439453,0
-0.28295898,0.7202149,-0.91870123,0
-0.19335938,0.7473145,-0.8112793,0
-0.19335938,0.7473145,-0.8112793,0
-0.18945313,0.7910156,-0.842041,0
-0.12963867,0.7734375,-0.7836914,0
-0.17651367,0.7158204,-0.74243164,0
-0.1887207,0.7680664,-0.717041,0
-0.11328126,0.5563965,-0.40625003,0
-0.104003906,0.7663575,-0.33911133,0
-0.25512695,0.9450684,-0.37719727,0
-0.29492188,1.0129395,-0.17871094,0
-0.41674805,0.88378906,-0.28955078,0
-0.46411136,0.7426758,-0.28051758,0
-0.3076172,0.9213867,-0.27172852,0
-0.3076172,0.9213867,-0.27172852,0
-0.16674805,1.1015625,-0.35595703,0
-0.40039065,1.0251465,-0.29907227,0
-0.3344727,0.84887695,-0.29492188,0
-0.32299805,0.86938477,-0.26953125,0
-0.5319824,1.0024414,-0.068847656,0
-0.56347656,0.8232422,-0.011962892,0
-0.54956055,0.60717773,-0.20800781,0
-0.34057617,0.86523443,-0.5683594,0
-0.34057617,0.86523443,-0.5683594,0
-0.1772461,1.3713379,-0.50341797,0
-0.077392586,1.439209,-0.3466797,0
-0.1652832,1.4426271,-0.37890625,0
-0.1484375,1.1103516,-0.4987793,0
0.09033203,0.98779297,-0.5090332,0
-0.10961915,1.3759767,-0.35937503,0
-0.10961915,1.3759767,-0.35937503,0
-0.12353516,1.3391113,-0.35253906,0
-0.12353516,1.3391113,-0.35253906,0
0.11547852,0.3989258,0.56591797,0
0.18408205,0.28076172,0.5517578,0
0.29052734,0.59399414,0.59814453,0
0.29052734,0.59399414,0.59814453,0
0.4692383,0.49438477,0.40283203,0
1.1682129,-0.1237793,0.2697754,0
0.2998047,0.61840826,0.90356445,0
1.0092773,-0.007080079,-0.6064453,0
1.3198242,0.036865234,-0.7978516,0
1.3181154,-0.7080078,-0.48486328,0
0.7807617,0.67163086,0.45458987,0
0.8708496,-0.10644531,-0.002197266,0
1.1665039,-0.30249023,-0.17919922,0
0.9853516,0.1640625,-0.30200195,0
1.3076172,-0.26782227,-0.34375,0
1.1877441,-0.36547852,-0.3618164,0
1.0678711,-0.13696289,-0.064697266,0
0.98413086,-0.5085449,-0.35058597,0
0.88012695,-0.5292969,-0.46435547,0
0.95043945,-0.16772461,-0.2861328,0
1.0546875,-0.6096192,-0.37304688,0
1.4750977,-0.14160156,-0.35473633,0
1.4453125,-0.47338867,-0.3076172,0
1.3195802,0.26586914,-0.01171875,0
1.279541,0.75268555,0.1789551,0
0.37890625,0.5053711,0.6166992,0
-0.2006836,0.29638672,0.35668945,0
-0.3635254,-0.053222656,-0.06176758,0
-0.7922363,-0.3815918,-0.5354004,0
1.3613282,-1.4653322,-0.63061523,0
2.3105469,0.6220704,0.108886726,0
2.3105469,0.6220704,0.108886726,0
0.58862305,-0.12182617,0.2854004,0
1.3371583,-0.2626953,-0.24047853,0
0.9648438,-0.3642578,-0.61938477,0
1.317627,-0.012207031,-0.5253906,0
1.2480469,-0.1171875,-0.17675783,0
1.4206544,-0.42016605,-0.49243164,0
1.6518555,-0.39135742,-0.43164063,0
1.6518555,-0.39135742,-0.43164063,0
0.75439453,-1.5424805,-0.70214844,0
0.8774414,-0.8872071,-0.654541,0
1.0769043,-0.9057617,-0.8017578,0
1.2529298,-0.7260743,-0.65625,0
1.017334,-0.7614746,-0.8337403,0
0.8745117,-0.82958984,-0.7663575,0
0.66918945,-0.5905762,-0.52197266,0
0.5900879,-0.2492676,-0.2956543,0
0.42309573,-0.030029297,-0.07543945,0
0.42333984,0.040283203,-0.06225586,0
0.30786133,0.1105957,0.041503906,0
0.30786133,0.1105957,0.041503906,0
0.27001953,0.008056641,-0.06103516,0
0.3347168,0.3466797,-0.06518555,0
0.5842285,0.09008789,0.028076172,0
0.8769532,0.0979004,-0.11108399,0
1.1611328,-0.05004883,-0.21240234,0
0.96240234,-0.026367188,-0.13549805,0
0.95703125,0.46948242,0.04125977,0
0.6472168,-0.6101074,0.24047853,0
0.82910156,-0.10644531,0.2758789,0
0.8615723,-0.088134766,0.28100586,0
0.88281256,-0.20825197,0.236084,0
1.0229492,0.1809082,0.33984375,0
0.9777832,0.16723634,0.23535158,0
1.0224609,0.14819336,0.21166992,0
1.0439453,0.15673828,0.18969727,0
1.1149902,0.21557619,0.006347657,0
0.8203125,-0.30932617,0.31640625,0
0.8796387,-0.21142578,0.43774417,0
0.96240234,-0.028564453,0.44946292,0
1.0141602,0.1586914,0.4411621,0
0.9819336,0.21240234,0.36962894,0
0.93994147,0.22094727,0.2861328,0
0.94677734,0.23681642,0.29248047,0
0.9733887,0.22973633,0.29663086,0
0.9838868,0.12841797,0.31274414,0
0.97021484,0.06274414,0.31616214,0
0.9255371,0.032470703,0.3137207,0
0.8674317,0.041015625,0.27416992,0
0.8244629,0.09936524,0.26879883,0
0.80883795,0.09399414,0.25512695,0
0.8093262,0.07373047,0.21826172,0
0.81811523,0.12841797,0.19555664,0
0.8679199,0.0979004,0.18627931,0
0.90234375,0.038085938,0.14282227,1
0.96240234,-0.13891602,0.17700195,1
0.76196295,-0.05371094,0.076416016,1
0.7192383,0.024658205,0.08081055,1
0.25463867,-0.45996094,-0.031982422,1
0.18139648,-0.11914063,-0.016357422,1
0.1147461,-0.18945313,0.055419922,1
0.18432617,-0.041015625,0.07104492,1
0.48217773,0.3647461,0.38305664,1
0.5209961,0.14379883,0.37304688,1
0.45361328,0.35766602,0.39648438,1
0.5744629,0.6635742,0.47314453,1
0.4387207,0.20776367,0.22338867,1
3.7539065,5.149658,0.084716804,1
1.722168,-2.1418457,0.9506836,1
0.0637207,1.5803224,1.8701172,1
-0.21630861,0.7265625,0.6870117,1
0.07836914,1.5590822,0.5397949,1
-1.1499023,0.8408203,0.44384766,1
-0.41918945,0.80322266,-0.16357423,1
0.43994144,0.328125,-0.51293945,1
0.38232422,0.9584961,0.4655762,1
0.08666992,0.7067871,0.23022462,1
-0.30957034,0.9277344,0.41259766,1
-0.33740237,1.1726074,0.12451172,1
-0.3869629,0.7875977,-0.039794926,0
-0.43066406,0.76855475,-0.16845703,0
-0.25024414,0.45043945,-0.46728516,0
0.04931641,0.7998047,-0.602295,0
0.012207031,0.67114264,-0.6704102,0
-0.01928711,0.64843756,-0.7980957,0
-0.038085938,0.8935547,-0.977295,0
-0.064697266,0.67456055,-0.717041,0
-0.12841797,0.7202149,-0.92626953,0
-0.14770508,0.74121094,-0.97583014,0
-0.17871094,0.6594239,-0.80981445,0
-0.11279297,0.71240234,-0.9414063,0
-0.14550781,0.74145514,-0.8244629,0
-0.14550781,0.74145514,-0.8244629,0
-0.16088867,0.75439453,-0.81542975,0
-0.08081055,0.5029297,-0.501709,0
-0.047851566,0.6462403,-0.41235352,0
-0.17260742,0.68969727,-0.44848633,0
-0.1591797,0.79931647,-0.24780275,0
-0.25073242,0.8383789,-0.29833984,0
-0.22656251,1.1955566,-0.37060547,0
-0.24243164,1.1982422,-0.26953125,0
-0.24243164,1.1982422,-0.26953125,0
-0.1994629,1.1696777,-0.09570313,0
-0.19628906,1.0349121,-0.13842773,0
-0.28759766,1.0180664,-0.20825197,0
-0.28759766,1.0180664,-0.20825197,0
-0.29125977,0.97753906,-0.13989258,0
-0.2980957,0.9479981,-0.12719727,0
-0.2746582,0.98608404,-0.23657227,0
-0.2854004,0.9863281,-0.2192383,0
-0.2854004,0.9863281,-0.2192383,0
-0.26660156,0.9846192,-0.20141602,0
-0.26660156,0.9846192,-0.20141602,0
-0.2553711,0.9602051,-0.16772461,0
-0.079833984,1.3879395,-0.2697754,0
-0.1555176,1.4221193,-0.14648438,0
-0.17260742,1.3215332,0.23339844,0
-0.21142578,1.1425781,0.13549805,0
0.6499024,0.41918945,0.76220703,0
0.9575196,0.46435547,0.64453125,0
0.7729493,-0.07812501,0.1159668,0
0.921875,0.6062012,0.001464844,0
0.8432618,0.5761719,0.27929688,0
0.9602051,0.7043457,0.31958008,0
0.57592773,0.5786133,0.17382814,0
0.37158203,0.42285156,0.5817871,0
1.5087891,-0.4384766,0.33911133,0
1.1970215,-0.45605472,-0.027587892,0
0.92993164,0.0637207,0.14550781,0
1.0024414,-0.1586914,-0.22216798,0
1.0710449,-0.21313477,-0.21606445,0
1.0002441,-0.2709961,0.089111336,0
0.83691406,0.03759766,-0.12939453,0
1.0744629,-0.097167976,-0.16333008,0
0.796875,-0.42749026,-0.024169922,0
0.9069825,-0.28955078,-0.5358887,0
0.814209,-0.6132813,-0.08203125,0
1.0148926,-0.11743164,-0.3466797,0
1.0415039,-0.43261722,-0.15039064,0
1.1633301,-0.3952637,-0.74218756,0
1.4516602,-0.1789551,-0.0859375,0
1.2685547,-0.57958984,-0.26660156,0
0.64501953,-1.1833496,-0.76293945,0
0.65478516,-0.85302734,-0.486084,0
0.65478516,-0.85302734,-0.486084,0
0.8674317,-0.88378906,-0.3083496,0
0.9267579,-0.803711,-0.2705078,0
0.81152344,-1.1247559,-0.40771487,0
0.8105469,-1.0004883,-0.45361328,0
0.977295,-0.4584961,-0.48681644,0
1.0705566,-0.50634766,-0.5344238,0
0.970459,-0.7614746,-0.5205078,0
0.81274414,-0.51416016,-0.33569336,0
0.5974121,-0.5510254,-0.18457031,0
0.4807129,-0.29858398,-0.059570316,0
0.36254883,-0.28881836,0.036132813,0
0.18164063,-0.2944336,-0.005126953,0
0.17480469,-0.18115236,-0.036621094,0
0.22875978,0.06665039,-0.012939453,0
0.28027344,-0.023193361,0.0690918,0
0.40161133,0.091796875,0.1743164,0
0.8212891,0.013427735,0.16552734,0
1.152832,-0.03857422,0.16674805,0
1.5854493,-0.05371094,-0.017089844,0
1.1142578,0.010742188,-0.068603516,0
0.9511719,0.09082031,0.042724613,0
0.7873535,0.25927734,0.345459,0
0.98022467,0.45263672,0.34326175,0
0.92407227,-0.07714844,0.27734375,0
0.83325195,-0.41674805,0.3015137,0
0.78906256,-0.43408206,0.33911133,0
0.8186035,-0.053955078,0.4890137,0
0.94677734,0.104003906,0.41796878,0
0.9609375,0.27441406,0.33984375,0
0.8823242,0.24291992,0.20971681,0
0.91284186,0.4519043,0.19067384,0
0.9108887,0.49536133,0.18530273,0
0.9011231,0.28125,0.22680664,0
0.91918945,0.30371097,0.25048828,0
0.9511719,0.40576172,0.25683594,0
0.91845703,0.33691406,0.26757813,0
0.86206055,0.34594727,0.2290039,0
0.8869629,0.3647461,0.3232422,0
0.8869629,0.3647461,0.3232422,0
0.80322266,0.37426758,0.3051758,0
0.80688477,0.36596683,0.3083496,0
0.79907227,0.35546875,0.35107422,0
0.8029786,0.33032227,0.33081058,0
0.8203125,0.31298828,0.35253906,0
0.8344727,0.30737308,0.3671875,0
0.85546875,0.25683594,0.32006836,0
0.83984375,0.22216798,0.2685547,0
0.7971192,0.19042969,0.25683594,0
0.7971192,0.19042969,0.25683594,0
0.7819824,0.18041994,0.2446289,0
0.8208008,0.17138672,0.24243164,0
0.89941406,0.11376953,0.18164063,0
0.85278326,0.108154304,0.1459961,0
0.9057617,0.009033203,0.123046875,0
0.8859863,-0.009277344,0.06201172,1
0.7858887,-0.11230469,-0.025634766,1
0.6601563,-0.03100586,-0.033203125,1
0.6750488,-0.0715332,-0.08081055,1
0.8120117,-0.014648438,-0.037841797,1
0.7905274,0.027832031,0.061279297,1
0.5961914,-0.15527344,-0.106933594,1
0.5683594,-0.18481447,-0.025390627,1
0.55126953,-0.053222656,0.072265625,1
0.5151367,-0.07055664,0.02734375,1
0.24121095,-0.06176758,-0.19433595,1
-0.61450195,-0.8251953,-0.86621094,1
-0.7741699,-0.002197266,0.50634766,1
3.8754885,2.9746096,1.3200684,1
1.5070802,1.2097169,0.90893555,1
0.74243164,2.102295,0.6936035,1
-0.16040039,0.82006836,0.048583988,1
-0.12182617,1.645752,0.16796876,1
-0.26538086,1.253418,0.10473633,1
0.43823242,1.017334,-0.06738281,1
1.6181641,0.9423828,0.5593262,1
0.3449707,1.1750488,0.607666,1
-0.32470703,1.6025391,0.748291,1
-0.5319824,0.8039551,-0.1994629,1
-0.43041995,0.6218262,-0.27539063,1
-0.36694336,0.25708008,-0.24804688,0
-0.38476563,0.19555664,-0.2709961,0
-0.3618164,0.23632813,-0.31884766,0
-0.7380371,0.018310547,-0.90600586,0
-0.3688965,-0.042236328,-1.246582,0
0.042724613,-0.15136719,-0.9780274,0
0.0625,0.080078125,-0.9555664,0
0.036621094,0.54589844,-1.1269531,0
-0.6298828,0.8276367,-0.9216309,0
-0.41235352,0.5673828,-1.1052246,0
-0.3981934,0.68969727,-1.2277832,0
-0.3400879,0.1315918,-0.79663086,0
-0.46875,0.115234375,-0.79467773,0
-0.30981445,0.20214844,-0.85571295,0
-0.31542972,0.4909668,-1.1174316,0
-0.31542972,0.4909668,-1.1174316,0
-0.12792969,0.27124023,-1.0153809,0
-0.26171875,0.37695315,-1.1313477,0
-0.21777345,0.22387695,-1.0690918,0
-0.31860352,-0.0703125,-0.8945313,0
-0.5476074,0.40332034,-0.6496582,0
-0.35644534,0.45654297,-0.5317383,0
-0.27075195,0.58691406,-0.49731445,0
-0.27075195,0.58691406,-0.49731445,0
-0.47485352,0.3605957,-0.28637695,0
-0.47485352,0.3605957,-0.28637695,0
-0.41943362,0.709961,-0.3786621,0
-0.41943362,0.709961,-0.3786621,0
-0.5461426,0.6965332,-0.67187506,0
-0.5461426,0.6965332,-0.67187506,0
-0.5461426,0.6965332,-0.67187506,0
-0.25463867,1.1271973,-0.4375,0
-0.34887695,1.3652344,-0.3071289,0
-0.5563965,1.1455078,0.05126953,0
-0.5563965,1.1455078,0.05126953,0
-0.6135254,0.96240234,-0.049804688,0
-0.6135254,0.96240234,-0.049804688,0
-0.6135254,0.96240234,-0.049804688,0
-0.6948242,1.3532716,-0.60058594,0
-0.93896484,1.4746094,-0.6726075,0
1.2770997,2.3574219,-0.76464844,0
1.0373535,2.211914,-0.91625977,0
0.31689456,-0.7314453,0.25024414,0
0.76953125,1.482666,-0.16381836,0
0.89697266,-0.50097656,0.40283203,0
1.5131836,1.0490723,0.016845703,0
1.0283203,-0.44750977,-0.7492676,0
1.1330566,0.61767584,-0.32714847,0
0.91210943,0.028564453,0.016601563,0
1.0368652,0.14624023,-0.20483398,0
0.92236334,-0.16284181,-0.2746582,0
1.0639648,-0.12451172,-0.05493164,0
1.0639648,-0.12451172,-0.05493164,0
1.0588379,-0.26831055,-0.6928711,0
1.2202148,0.001220703,-0.02709961,0
1.4335938,-0.5895996,-0.9423828,0
1.8464355,-0.56274414,-0.8747559,0
1.4624025,-1.1535645,-0.27294922,0
1.0527344,-1.3017578,-0.10498047,0
0.8305664,-1.0446777,-0.001953125,0
1.1821289,-0.13989258,0.023193361,0
1.3376465,0.09936524,-0.019042969,0
1.4694824,-0.08496094,0.11401368,0
1.5844727,0.28320313,-0.04492188,0
1.9101563,0.6867676,-0.22485352,0
1.8476564,0.5510254,-0.25634766,0
1.7805176,0.607666,-0.20581055,0
1.2875977,0.71142584,-0.22998047,0
1.201416,0.6582031,-0.1586914,0
1.0026855,0.7651367,-0.010742188,0
0.79541016,0.5095215,-0.04931641,0
0.70947266,0.3618164,-0.09472656,0
0.49340823,0.4873047,-0.021972656,0
0.5720215,0.4453125,0.024658205,0
0.3869629,0.039062504,-0.2487793,0
0.30419922,0.2109375,-0.16186523,0
-0.28149414,-0.003417969,-0.03173828,0
-0.95239264,0.27734375,-0.22436525,0
-0.9011231,0.6970215,0.064697266,0
-0.82177734,0.39404297,0.16430666,0
-0.6572266,0.09863282,0.55859375,0
-0.7463379,0.24658203,0.32543945,0
-0.78906256,0.31420898,0.27319336,0
-0.80151373,0.4182129,0.29638672,0
-0.98217773,0.35717776,0.22973633,0
-0.86621094,0.2277832,0.36450198,0
-0.80322266,0.18652344,0.25708008,0
-0.87158203,0.3278809,0.24023438,0
-0.8027344,0.45092776,0.31298828,0
-0.6401367,0.050781254,0.2668457,0
-0.5710449,0.014160157,0.23095705,0
-0.57543945,0.19091797,0.26171875,0
-0.5048828,0.30004886,0.11743164,0
-0.44140628,0.50024414,0.16308594,0
-0.34912112,0.50439453,0.24951172,0
-0.25561523,0.9436036,0.14575195,0
-0.12597656,0.94628906,0.26953125,0
0.02368164,1.239502,0.24829102,0
0.02368164,1.239502,0.24829102,0
0.07080078,1.0649414,0.34716797,0
0.14355469,1.0129395,0.32421878,0
0.28466797,1.1936035,0.3850098,0
0.26098633,1.0510254,0.4523926,0
0.3203125,0.8327637,0.33764648,0
0.46948242,0.8850098,0.22729494,0
0.4572754,0.81616217,0.31420898,0
0.5324707,0.7268067,0.33666995,0
0.52319336,0.65478516,0.21899414,1
0.5686035,0.6677246,0.1784668,1
0.66821295,0.44677734,0.28320313,1
0.64843756,0.38085938,0.21337892,1
0.66796875,0.3166504,0.20654297,1
0.6389161,0.2644043,0.16699219,1
0.45874023,0.07592774,0.18408205,1
0.49072266,0.16235352,0.14086914,1
0.37158203,0.14257813,0.14453125,1
0.236084,0.06176758,0.26635742,1
0.3220215,-0.13305664,0.17358398,1
0.16723634,-0.13598633,0.06298828,1
-0.2060547,1.3659668,-0.6337891,1
3.2966309,4.9709473,-1.2355957,1
2.6518555,2.0461426,2.1035156,1
2.28833,2.3476563,2.310791,1
-0.3635254,1.3056642,-0.18481447,1
-1.1384277,1.3103027,0.26245117,1
-2.066162,1.121582,0.3146973,1
-0.7578125,1.2399902,-0.033203125,1
0.09326172,0.94091797,-0.8879395,1
0.375,1.0236816,-0.30029297,1
0.34033206,0.7072754,0.041748047,1
-0.20971681,0.42626953,0.08203125,1
-0.3701172,0.19042969,0.48291016,1
0.19458008,1.6865236,0.29125977,0
-0.23461916,1.1435547,-0.114990234,0
-0.11645508,1.2919922,-0.2253418,0
-0.14868164,0.89941406,-0.28027344,0
-0.17773438,0.7773438,-0.4321289,0
-0.16601563,0.602295,-0.51904297,0
-0.09472656,1.3479004,-0.29736328,0
-0.09472656,1.3479004,-0.29736328,0
-0.043945313,0.8916016,0.006591797,0
-0.036132813,1.1025391,0.16894531,0
-0.17456056,0.6689454,-0.051757813,0
-0.27807617,0.87353516,-0.047607422,0
-0.48779297,0.66796875,-0.27172852,0
-0.24194337,1.2639161,-0.33862305,0
-0.24023438,1.2294923,-0.3701172,0
-0.4519043,0.9545899,-0.23779297,0
-0.034423828,0.8598633,0.24365234,0
-0.1706543,0.8337403,0.32250977,0
-0.49291992,0.98706055,0.20629883,0
-0.4626465,1.0859375,0.041748047,0
-0.4626465,1.0859375,0.041748047,0
-0.6035156,0.6538086,-0.17480469,0
-0.43041995,0.8605957,0.14331055,0
-0.34619144,0.8872071,-0.16699219,0
-0.3615723,0.8029786,-0.15649414,0
-0.31860352,0.9243164,0.17797852,0
-0.3737793,0.89282227,-0.15966797,0
-0.30957034,0.5124512,0.35766602,0
0.085449226,1.5288086,0.5734863,0
0.18334962,1.0480957,0.5324707,0
0.43286133,1.1806641,0.1147461,0
0.45605472,1.3608398,0.6599121,0
0.22436525,1.4050293,1.1174316,0
0.32910156,0.88256836,1.433838,0
0.32910156,0.88256836,1.433838,0
-0.05834961,0.9018555,0.9711914,0
-0.12719727,0.72167975,0.67187506,0
-0.30322266,0.27783203,0.00390625,0
-0.425293,-0.4580078,-0.30957034,0
-0.4206543,-0.78222656,-0.37963867,0
-0.22924805,-0.46240234,-0.18725586,0
-0.032714844,0.10864258,0.06225586,0
-0.032714844,0.10864258,0.06225586,0
1.2585449,1.8005371,0.16210939,0
1.1611328,0.15039064,0.07910156,0
0.6621094,-0.24780275,-0.3249512,0
0.7368164,-0.24121095,-0.58251953,0
1.0935059,0.16918945,0.48828128,0
0.95312506,-0.1394043,-0.25805664,0
1.1264648,-0.11328126,-0.15795898,0
1.0749512,0.011474609,-0.13452148,0
1.0749512,0.011474609,-0.13452148,0
1.0974121,-0.23461916,0.24487306,0
1.0974121,-0.23461916,0.24487306,0
0.9719238,-0.38842773,0.3881836,0
0.96337897,0.107910156,-0.022949219,0
0.96337897,0.107910156,-0.022949219,0
0.96313477,-0.4404297,-0.26782227,0
0.982666,-0.53271484,0.34228516,0
1.0100098,-0.7277832,-0.33374026,0
1.064209,-0.33496094,0.15625001,0
1.064209,-0.33496094,0.15625001,0
1.4453125,-0.31689456,0.13916016,0
1.6181641,-0.30932617,0.09301758,0
1.6425782,-0.01123047,0.35595703,0
1.2575684,0.3615723,0.55322266,0
1.1181641,0.6218262,0.50146484,0
0.61279297,0.8547363,0.5415039,0
0.15966797,0.8330079,0.57006836,0
-0.54833984,0.3286133,0.22241211,0
-0.54833984,0.3286133,0.22241211,0
-0.8129883,-0.56591797,-0.010986328,0
2.2324219,-2.4948733,-0.4008789,0
1.4775391,0.86035156,0.3232422,0
1.0383301,-0.7558594,0.37158203,0
0.72827154,-0.41992188,-0.07348633,0
0.35424808,0.56274414,-1.1882324,0
2.0720215,-0.4284668,-0.68481445,0
1.4099121,-0.032226563,0.24975586,0
1.2595216,-0.6967774,-0.60083014,0
1.0791016,-0.92871094,-0.5578613,0
1.0791016,-0.92871094,-0.5578613,0
1.0852051,-1.2739258,-0.72436523,0
1.1306152,-0.6357422,-0.82666016,0
1.157959,-0.8811035,-0.5053711,0
1.0739746,-0.039794926,-0.7241211,0
1.107666,-0.42407227,-0.66430664,0
0.7272949,-0.4741211,-0.4584961,0
0.66821295,-0.28466797,-0.27197266,0
0.57470703,-0.17333984,-0.12866211,0
0.49291992,-0.36499023,-0.12646484,0
0.3815918,0.059326172,-0.050781254,0
0.47460938,0.024169922,0.010498048,0
0.42871094,0.084228516,0.04663086,0
0.52197266,-0.012695313,0.1003418,0
0.7182617,-0.010253906,-0.016357422,0
0.640625,-0.023925783,0.02368164,0
0.784668,-0.11010742,-0.22436525,0
0.8234864,0.045166016,-0.16113281,0
0.883545,-0.06713867,-0.14819336,0
0.9880371,-0.12036133,-0.19213869,0
0.95581055,-0.037353516,-0.34985355,0
0.9313965,0.44384766,-0.22558594,0
0.9313965,0.44384766,-0.22558594,0
0.95703125,0.17871094,-0.20507813,0
0.8605957,0.14453125,0.009521484,0
0.96557623,0.091552734,-0.004882813,0
0.82836914,-0.33618164,0.21606445,0
1.0388184,-0.37255862,0.28637695,0
1.2678223,-0.017822266,0.7041016,0
1.1774902,0.1555176,0.5637207,0
0.8977051,0.2487793,0.5019531,0
0.75634766,0.20141602,0.51171875,0
0.7165528,0.30419922,0.4309082,0
0.75512695,0.3071289,0.30297855,0
0.6462403,0.18554689,0.23461916,0
0.6459961,0.1940918,0.2770996,0
0.63745123,0.26953125,0.1147461,0
0.6376953,0.24584961,-0.14794922,0
0.6000977,0.044677734,0.20629883,0
0.8647461,0.24975586,0.38720706,0
0.8647461,0.24975586,0.38720706,0
1.1647949,0.33911133,0.4580078,0
1.1713867,0.23510742,0.32885742,0
1.2067872,0.24707033,0.37036136,0
1.1804199,0.24511719,0.38281253,0
1.0407715,0.032958984,0.3117676,0
0.98413086,0.01171875,0.3552246,0
0.94213873,0.095947266,0.3754883,0
0.93627936,0.1484375,0.3183594,0
0.9169922,0.16015625,0.28515625,0
0.8850098,0.080566406,0.2849121,0
0.90625006,0.09350587,0.2705078,0
0.9338379,0.09863282,0.24731445,0
0.91918945,0.0871582,0.23925781,0
0.90258795,0.07836914,0.23388673,0
0.8972168,0.08300781,0.23461916,0
0.8942871,0.08251954,0.22656251,0
0.8730469,0.07348633,0.2229004,0
0.8203125,0.087890625,0.22094727,0
0.77148443,0.068359375,0.19384766,0
0.72241217,0.08764649,0.1743164,0
0.80126953,0.10424805,0.15136719,0
0.9206543,0.08691407,0.12719727,0
0.95703125,0.072509766,0.13745117,0
0.9536133,0.014404297,0.112548836,1
0.89038086,0.008789063,0.083496094,1
0.7675781,0.002685547,0.096191406,1
0.7675781,0.002685547,0.096191406,1
0.71313477,0.007324219,0.08520508,1
0.59033203,-0.048828125,0.07861328,1
0.5605469,0.048583988,0.1555176,1
0.5253906,-0.09838867,0.24023438,1
0.38964844,-0.18652344,0.2121582,1
0.3383789,-0.04296875,0.19873048,1
0.28295898,-1.2434083,0.22875978,1
-0.58081055,-0.38085938,-0.8000489,1
-0.58081055,-0.38085938,-0.8000489,1
3.9655764,6.073242,1.6320801,1
2.5683594,1.6174316,2.1105957,1
0.7468262,1.4052736,1.0090332,1
-0.4506836,0.6035156,-0.35839844,1
-1.1738281,1.5273438,1.1640625,1
0.27026367,1.0480957,0.37670898,1
0.5395508,1.2341309,-0.05419922,1
-0.005615235,0.5979004,0.24780275,1
-0.25463867,0.41552734,0.35278323,1
-0.4387207,0.73535156,0.11401368,1
-0.4387207,0.73535156,0.11401368,1
-0.57470703,0.59887695,0.26660156,1
-0.43774417,0.48510742,0.25732422,0
-0.2578125,0.6936035,0.020019531,0
-0.18359375,0.763916,-0.079833984,0
-0.115722656,0.85253906,-0.27392578,0
-0.16186523,0.8066407,-0.41992188,0
-0.0859375,0.9086914,-0.5324707,0
0.006835938,1.4985352,-0.73657227,0
0.008300781,1.2678223,-0.50219727,0
-0.10595704,1.0412598,-0.41088867,0
-0.13061523,0.70166016,-0.46533203,0
-0.13061523,0.70166016,-0.46533203,0
-0.1381836,0.88647467,-0.40576172,0
-0.1381836,0.88647467,-0.40576172,0
-0.15136719,0.951416,-0.3239746,0
-0.15136719,0.951416,-0.3239746,0
-0.09008789,0.98413086,-0.30566406,0
-0.09008789,0.98413086,-0.30566406,0
-0.053222656,0.87158203,-0.06591797,0
-0.053222656,0.87158203,-0.06591797,0
-0.072509766,1.0949707,0.112548836,0
-0.072509766,1.0949707,0.112548836,0
-0.14111328,1.1132813,0.032226563,0
-0.14111328,1.1132813,0.032226563,0
-0.12158203,1.1381836,-0.17919922,0
-0.28344727,0.8532715,-0.3540039,0
-0.20410156,0.92993164,-0.23681642,0
-0.12402344,1.0019531,-0.16210939,0
-0.30908203,0.98876953,-0.12182617,0
-0.30908203,0.98876953,-0.12182617,0
-0.123291016,1.2690431,0.04321289,0
-0.14575195,1.0495605,-0.18554689,0
-0.20336914,0.8671875,-0.5319824,0
-0.119873054,1.0900879,-0.6101074,0
-0.119873054,1.0900879,-0.6101074,0
-0.23046875,1.3510743,-0.6772461,0
-0.103271484,1.1887207,-0.4453125,0
-0.036865234,1.0947266,-0.4074707,0
-0.036865234,1.0947266,-0.4074707,0
-0.19799806,0.9580078,-0.21484376,0
0.17089845,0.068359375,0.32348636,0
0.17089845,0.068359375,0.32348636,0
0.36401367,1.1174316,0.39135742,0
0.38891602,0.923584,0.51586914,0
0.45263672,0.9243164,0.44189453,0
0.4421387,0.8071289,0.19311523,0
0.4421387,0.2722168,0.6833496,0
0.54663086,0.33032227,0.6901856,0
0.68872076,0.37646484,0.6647949,0
0.9670411,1.1015625,-0.35351565,0
0.9670411,1.1015625,-0.35351565,0
0.87719727,0.26220703,0.1213379,0
1.0224609,0.55810547,-0.013427735,0
0.91748047,0.31591797,0.4758301,0
0.13891602,0.16186523,-0.2866211,0
0.13891602,0.16186523,-0.2866211,0
0.7265625,0.27514648,-0.5695801,0
0.7265625,0.27514648,-0.5695801,0
1.3117676,-0.06665039,-0.30883792,0
1.1247559,-0.34619144,-0.4189453,0
1.175293,-0.39208984,-1.220459,0
1.0854492,0.03955078,0.3371582,0
0.73120123,-0.30249023,0.26953125,0
1.0236816,-0.2319336,-0.013916016,0
0.77612305,-0.57373047,-0.25561523,0
0.8081055,-0.26293945,-0.23291016,0
1.0939941,-0.53027344,-0.2746582,0
1.0324707,-0.44946292,-0.31298828,0
1.2329102,-0.27197266,-0.140625,0
1.3166505,-0.3586426,-0.032470703,0
0.9819336,0.004150391,0.0637207,0
0.83667,0.43139648,0.18969727,0
0.86035156,0.63720703,0.31225586,0
1.1884766,1.0297852,0.1171875,0
1.2021484,0.60449225,0.21142578,0
0.61108404,0.108154304,0.6020508,0
0.53393555,0.26879883,0.4987793,0
0.30957034,0.056884766,0.033447266,0
0.19384766,-0.6230469,0.16699219,0
0.2492676,0.3713379,-0.020996096,0
0.23046875,0.03540039,-0.91186523,0
2.2407227,-0.23120117,-0.8571778,0
0.8039551,0.79931647,0.7717285,0
-0.04321289,0.50268555,0.32910156,0
0.789795,-0.125,-0.32177734,0
1.4870605,-0.46997073,-0.4440918,0
1.4638673,-0.25683594,-0.015136719,0
0.72216797,-0.2631836,-0.79199225,0
0.8073731,-0.35961914,-0.58325195,0
1.4482422,0.29492188,-0.18457031,0
1.1462402,-0.41284183,-0.5292969,0
1.5957032,0.52075195,-0.032958984,0
1.7026368,0.19799806,-0.11816406,0
1.8208008,-0.085449226,-0.08886719,0
1.0861816,-0.5517578,-0.17504883,0
1.1948242,-0.13842773,0.25097656,0
1.4360353,-0.15698244,0.28466797,0
1.8994141,-0.41064456,0.08154297,0
1.703125,0.24047853,-0.025390627,0
1.682129,0.45922852,-0.015136719,0
1.4550782,0.49609375,-0.11352539,0
1.4086914,0.5727539,-0.08325196,0
1.1325684,0.48168948,-0.10595704,0
0.6528321,0.28076172,-0.106933594,0
0.5319824,0.5593262,0.052490234,0
0.59350586,0.38964844,0.045898438,0
0.3684082,0.7033692,-0.29760742,0
0.37597656,0.63525397,-0.24584961,0
0.26538086,0.5498047,-0.32934573,0
0.32641605,0.36108398,-0.26416016,0
0.033691406,-0.11206055,-0.19799806,0
-0.4309082,0.171875,-0.23266602,0
-0.5258789,0.10302735,-0.16699219,0
-0.7143555,0.0871582,0.20629883,0
-0.51538086,0.7570801,0.32348636,0
-0.8901368,0.010253906,0.35546875,0
-0.8344727,0.44287112,0.25219727,0
-0.8608399,0.31201172,0.20874023,0
-0.782959,0.1237793,0.015625,0
-0.56469727,-0.1953125,0.20776367,0
-0.3713379,-0.1760254,0.8542481,0
-0.3713379,-0.1760254,0.8542481,0
-0.3713379,-0.1760254,0.8542481,0
-0.3713379,-0.1760254,0.8542481,0
-0.3713379,-0.1760254,0.8542481,0
-0.3713379,-0.1760254,0.8542481,0
-0.3713379,-0.1760254,0.8542481,0
-0.3713379,-0.1760254,0.8542481,0
-0.3713379,-0.1760254,0.8542481,0
-0.24047853,-0.30273438,0.7873535,0
0.08666992,1.6123047,-0.13989258,0
0.7109375,1.0854492,0.22387695,0
0.7109375,1.0854492,0.22387695,0
0.8442383,0.6169434,0.043457035,0
0.95312506,0.9719238,0.120605476,0
1.0612793,0.94018555,0.08178712,0
0.984375,0.5510254,0.032470703,0
0.984375,0.5510254,0.032470703,0
0.95288086,0.5151367,0.099609375,0
0.9816895,0.4992676,0.115234375,0
0.98974615,0.49047855,0.119873054,0
0.98046875,0.42675784,0.14868164,0
1.0153809,0.33691406,0.15966797,0
1.0310059,0.29663086,0.20654297,0
1.0778809,0.27807617,0.18017578,0
1.0458984,0.2006836,0.1171875,0
0.970459,0.15795898,0.12109375,0
0.9809571,0.13891602,0.099609375,0
0.8710938,0.14794922,0.022705078,0
0.7416992,0.091796875,0.024414063,0
0.68603516,0.048583988,0.03051758,0
0.5661621,0.16796876,0.026611328,0
0.51904297,0.099853516,0.043701172,0
0.5163574,0.089111336,0.040283203,0
0.5163574,0.089111336,0.040283203,0
0.532959,0.15478517,0.040527347,1
0.5119629,0.13891602,0.014404297,1
0.5119629,0.13891602,0.014404297,1
0.47949222,0.060791016,0.030761719,1
0.50634766,0.023193361,0.06738281,1
0.5776367,0.06567383,0.11791992,1
0.56518555,-0.26782227,0.12939453,1
0.5559082,-0.15283203,0.14575195,1
0.5559082,-0.15283203,0.14575195,1
-0.0925293,-0.767334,0.009765626,1
-0.0925293,-0.767334,0.009765626,1
-0.47363284,1.6223145,0.5522461,1
-0.47363284,1.6223145,0.5522461,1
3.1027834,4.595215,0.52612305,1
-1.902588,1.1992188,0.7536621,1
0.6132813,0.98022467,0.08398438,1
-0.057617188,0.7644043,-0.15991212,1
-0.38378906,0.56396484,-0.23339844,1
-0.25439453,0.7912598,0.048095703,1
-0.35595703,0.48413086,0.24682617,1
-0.23022462,0.6940918,-0.01977539,1
-0.12963867,0.8640137,-0.06225586,1
-0.21508789,0.81933594,-0.2993164,1
-0.085449226,0.9609375,-0.79248047,1
0.005859375,1.0917969,-0.82299805,1
0.05004883,0.83569336,-0.7023926,0
0.14208984,1.2451172,-0.67480475,0
-0.10156251,0.8503418,-0.5534668,0
-0.023193361,1.0090332,-0.40917972,0
0.022705078,1.0192871,-0.38940433,0
-0.08496094,0.8935547,-0.55810547,0
-0.1027832,0.8776856,-0.48217773,0
-0.07495117,0.9020996,-0.3774414,0
-0.06103516,0.9367676,-0.33007815,0
-0.03759766,1.0251465,-0.36645508,0
-0.041015625,0.96728516,-0.3916016,0
-0.033935547,0.86572266,-0.4013672,0
-0.002441407,0.8100586,-0.32421878,0
0.23291016,1.270752,-0.328125,0
0.14794922,1.1789551,-0.39697266,0
0.06176758,0.9638672,-0.18896484,0
-0.13867188,0.88256836,-0.3146973,0
-0.13867188,0.88256836,-0.3146973,0
-0.13867188,0.88256836,-0.3146973,0
-0.13867188,0.88256836,-0.3146973,0
-0.13867188,0.88256836,-0.3146973,0
-0.116210945,0.74145514,-0.10595704,0
-0.27148438,0.9667969,-0.22998047,0
-0.5366211,0.9199219,-0.18115236,0
-0.26879883,0.83959967,-0.1105957,0
-0.16235352,0.8811035,-0.111572266,0
-0.5559082,0.9511719,-0.15771486,0
-0.47851563,0.9602051,-0.108886726,0
-0.24487306,0.8945313,-0.33789063,0
-0.38598633,0.8601075,-0.29101563,0
-0.60717773,0.88842773,-0.36962894,0
-0.44189453,0.81811523,-0.22973633,0
-0.44189453,0.81811523,-0.22973633,0
-0.38891602,0.91552734,-0.068603516,0
-0.3989258,0.972168,-0.09741211,0
-0.21191408,1.1252441,-0.50439453,0
-0.08618165,1.4174805,-0.88549805,0
-0.3540039,0.7861329,-0.5012207,0
-0.33544922,0.8046875,-0.45581055,0
-0.27563477,1.2082521,-0.44677734,0
-0.24511719,1.1342773,-0.14648438,0
-0.24121095,1.130127,0.1887207,0
-0.5202637,0.84252936,0.13793945,0
-0.41333008,0.25341797,0.16235352,0
-0.40405276,-0.1147461,0.07543945,0
-0.20751955,-0.01171875,-0.62890625,0
1.659668,2.2280273,0.77514654,0
1.1569824,0.17333984,0.6105957,0
1.1223145,-0.099853516,0.2841797,0
0.8684082,1.1140137,-0.045410156,0
0.5859375,0.5722656,-0.10498047,0
0.6508789,0.4321289,0.2043457,0
0.84814453,0.89599615,0.52905273,0
1.2097169,0.4985352,0.11303711,0
1.0539551,0.31079102,-0.63842773,0
1.3500977,-0.10058594,0.24902344,0
1.045166,0.16357423,-0.0546875,0
1.0627441,-0.234375,-0.092773445,0
1.1391602,-0.052490234,-0.6088868,0
0.9609375,-0.3605957,-0.18383789,0
1.0629883,-0.14160156,0.06689453,0
0.8383789,-0.26660156,-0.042236328,0
0.991211,-0.24169922,0.03833008,0
0.7729493,-0.46875,-0.083740234,0
0.81811523,-0.49316406,-0.07446289,0
0.97094727,-0.35620117,0.12353516,0
0.97094727,-0.35620117,0.12353516,0
1.2143555,-0.15771486,-0.044189457,0
1.0634766,0.22631836,0.16210939,0
1.5649415,0.16503908,0.111572266,0
1.2836915,-0.7585449,-0.5625,0
0.7844238,0.6906738,-0.5275879,0
0.92211914,0.49047855,-0.28076172,0
1.4787598,0.4477539,-0.18237305,0
1.0805664,1.0366211,0.12475586,0
0.6516113,0.27661133,0.63061523,0
0.41796878,0.27319336,0.71850586,0
0.46166992,0.14550781,0.6660157,0
0.3815918,0.15991212,0.5097656,0
0.31298828,-0.026367188,0.14941406,0
-0.111328125,-0.3220215,-0.23461916,0
0.3642578,0.36108398,-0.32958984,0
2.9831543,0.7805176,-1.4587404,0
2.0439453,-1.519043,-1.1657715,0
1.1376953,0.50341797,0.6228028,0
0.1743164,0.21533203,0.69555664,0
0.1743164,0.21533203,0.69555664,0
0.1743164,0.21533203,0.69555664,0
0.1743164,0.21533203,0.69555664,0
0.1743164,0.21533203,0.69555664,0
0.1743164,0.21533203,0.69555664,0
0.1743164,0.21533203,0.69555664,0
0.1743164,0.21533203,0.69555664,0
0.1743164,0.21533203,0.69555664,0
0.1743164,0.21533203,0.69555664,0
1.5144044,-0.072509766,-0.709961,0
1.0375977,-0.16064455,-0.789795,0
1.8813478,-0.517334,-0.42309573,0
1.0651855,-0.74975586,-0.28149414,0
0.9680176,-0.85571295,0.034423828,0
1.1264648,-0.52441406,0.10009766,0
1.6315919,-0.59521484,-0.041503906,0
1.6154786,-0.6867676,-0.10546875,0
1.1601563,-0.025634766,-0.22265625,0
1.2019043,-0.013916016,-0.17797852,0
1.189209,-0.02246094,-0.096435554,0
0.95703125,-0.11181641,0.000488281,0
0.6633301,-0.053466797,-0.12866211,0
0.60913086,0.001464844,-0.12573242,0
0.51000977,0.017578125,-0.037841797,0
0.39013675,-0.005371094,0.005126953,0
0.33422852,-0.016601563,-0.025634766,0
0.33496094,0.06274414,0.000732422,0
0.36572266,0.11450195,0.043945313,0
0.5637207,0.21386719,0.083496094,0
0.6257325,0.23510742,0.10546875,0
0.5715332,0.31640625,0.16772461,0
0.50512695,0.29833984,0.3076172,0
0.50512695,0.29833984,0.3076172,0
0.51171875,0.31323245,0.32299805,0
0.5822754,0.38427737,0.36694336,0
