 ms_accelerometer_x, ms_accelerometer_y, ms_accelerometer_z,outcome
1.0581055,0.096435554,0.11303711,0
0.71850586,0.23388673,0.22070314,0
0.71850586,0.23388673,0.22070314,0
0.9602051,0.19042969,0.05126953,0
0.9602051,0.19042969,0.05126953,0
0.9350586,0.12719727,-0.030029297,0
0.9350586,0.12719727,-0.030029297,0
0.9111328,0.19189453,-0.025878906,0
0.9638672,0.2590332,0.033447266,0
0.9680176,0.2878418,0.1789551,0
0.95336914,0.29370117,0.09448242,0
0.9682617,0.44458008,0.054443363,0
0.9743653,0.36547852,0.10498047,0
0.93725586,0.46289063,0.14941406,0
0.8806153,0.41015625,0.115234375,0
0.878418,0.34887695,0.08032227,0
0.79931647,0.21166992,0.26757813,0
0.8317871,0.14550781,0.23022462,0
0.7980957,0.12646484,0.23852539,0
0.87060547,0.09033203,0.22143556,0
1.2868652,-0.080078125,0.26098633,0
1.2648926,-0.046875,0.31298828,0
1.0788574,0.04248047,0.31933594,0
0.9506836,-0.035888672,0.2902832,0
0.9050293,0.022705078,0.26879883,0
0.59155273,0.486084,0.09667969,0
0.53393555,-0.022949219,0.23315431,0
0.857666,0.8212891,0.4523926,0
0.97021484,0.61108404,0.46997073,0
1.135498,0.2770996,0.35595703,0
0.8017578,0.13012695,0.345459,0
0.911377,-0.108886726,0.3015137,0
0.76562506,0.16943361,0.4223633,0
0.82470703,0.087402344,0.4121094,0
0.84814453,0.052001953,0.43164063,0
0.87524414,0.006591797,0.43041995,0
0.8879395,0.013183594,0.43310547,0
0.864502,-0.002685547,0.4584961,0
0.7998047,-0.017578125,0.49536133,0
0.7963868,-0.03540039,0.71801764,0
0.8745117,0.032958984,0.48388675,0
0.8730469,-0.046875,0.53100586,0
0.8730469,-0.046875,0.53100586,0
1.0012207,0.18652344,0.42578125,0
0.8083496,0.32592773,0.5371094,0
0.8486328,-0.03515625,0.6430664,0
0.71191406,0.17578125,0.51953125,0
0.7194825,0.077392586,0.3605957,0
0.7194825,0.077392586,0.3605957,0
0.7194825,0.077392586,0.3605957,0
0.7194825,0.077392586,0.3605957,0
0.7060547,-0.01879883,0.34423828,0
0.72167975,-0.03100586,0.33032227,0
0.803711,0.10009766,0.40673828,0
0.83325195,0.017822266,0.4345703,0
0.85180664,-0.015136719,0.4177246,0
0.85180664,-0.015136719,0.4177246,0
0.92602545,0.11108399,0.54589844,0
0.92407227,0.1760254,0.46362305,0
0.89331055,0.18896484,0.4621582,0
0.8410645,0.087890625,0.4621582,0
0.8508301,0.06640625,0.39648438,0
0.8449707,0.048583988,0.3813477,0
0.8508301,0.05053711,0.3786621,0
0.8508301,0.05053711,0.3786621,0
0.8508301,0.05053711,0.3786621,0
0.8508301,0.05053711,0.3786621,0
0.8508301,0.05053711,0.3786621,0
0.9243164,0.09350587,0.38964844,0
0.96337897,0.11108399,0.40014648,0
0.8918457,0.059814453,0.33203125,0
0.8413086,0.4716797,0.32250977,0
0.9106446,0.50634766,0.19604492,0
1.4968263,-0.053466797,0.053466797,0
1.1225586,0.40234375,0.37915042,0
0.8942871,0.55126953,0.25610352,0
0.8496094,0.51538086,0.29370117,0
0.8076172,0.49633792,0.29345703,0
0.8173828,0.52563477,0.31958008,0
0.98779297,0.21826172,0.2927246,0
-0.06933594,0.47753906,0.44653323,0
0.875,0.47973633,0.33984375,0
1.0283203,0.40014648,0.24804688,0
0.99731445,0.20922852,0.09375,0
0.9526367,0.2993164,0.20361328,0
0.9526367,0.2993164,0.20361328,0
0.68603516,0.35009766,0.3071289,0
0.9077149,0.34692386,0.31958008,0
0.7041016,0.40454102,0.34985355,0
0.7302246,-0.25195313,0.36376956,0
0.92407227,0.9348145,0.15991212,0
0.5180664,0.4655762,0.41552734,0
1.3188478,0.22753906,0.2770996,0
0.85668945,0.66625977,0.1555176,0
0.96557623,0.43676758,0.21630861,0
0.8947754,0.4787598,0.22973633,0
0.8935547,0.3779297,0.19628906,0
0.9301758,0.4140625,0.20361328,0
0.9040528,0.35253906,0.24951172,0
0.9916992,0.3869629,0.18627931,0
0.99072266,0.26733398,0.19921875,0
0.91870123,0.3449707,0.23168947,0
0.91870123,0.3449707,0.23168947,0
0.93652344,0.29663086,0.26879883,0
1.0168457,0.48779297,0.28930664,0
1.0532227,0.3774414,0.29370117,0
1.0026855,0.44311523,0.3984375,0
1.4467773,0.6928711,0.095947266,0
0.748291,0.77612305,0.4523926,0
0.6779785,0.51953125,0.4255371,0
0.73852545,0.2770996,0.3515625,0
0.8916016,0.5527344,0.30688477,0
0.5456543,0.38305664,0.25439453,0
0.5456543,0.38305664,0.25439453,0
0.68505865,0.44628906,0.23022462,0
0.7158204,0.40063477,0.20727539,0
0.67480475,0.47924805,0.21630861,0
0.68212897,0.6931153,0.23388673,0
0.5136719,0.5900879,0.41430667,0
0.64453125,0.4182129,0.42358398,0
0.59887695,0.2836914,0.5102539,0
0.77856445,0.76538086,0.3774414,0
0.80493164,0.3239746,0.54345703,0
0.65502936,0.43139648,0.28710938,0
0.68847656,0.41967773,0.0637207,0
0.68847656,0.41967773,0.0637207,0
0.9213867,0.30883792,0.22363283,0
1.1003418,0.3947754,0.40429688,0
0.95874023,0.14111328,0.4345703,0
0.84936523,0.13500977,0.3947754,0
0.7194825,0.21411134,0.3212891,0
0.69140625,0.29736328,0.26489258,0
0.63623047,0.38720706,0.23657227,0
0.50683594,0.4008789,0.30786133,0
0.501709,0.4655762,0.36376956,0
0.5234375,0.47460938,0.25512695,0
0.6806641,0.3852539,0.25195313,0
0.8786621,0.27954102,0.20166017,0
0.8786621,0.27954102,0.20166017,0
0.9785156,0.2783203,0.084228516,0
0.9785156,0.2783203,0.084228516,0
1.241211,0.42138672,0.12841797,0
1.241211,0.42138672,0.12841797,0
1.1904297,0.20776367,0.029785158,0
1.1904297,0.20776367,0.029785158,0
1.3063966,0.20825197,-0.038085938,0
1.2409668,0.16772461,-0.07861328,0
1.2980957,0.14453125,-0.051757813,0
1.2980957,0.14453125,-0.051757813,0
1.1740723,0.20117188,0.019042969,0
1.1740723,0.20117188,0.019042969,0
1.0036621,0.095214844,0.11694337,0
1.0024414,0.15673828,0.0871582,0
1.0532227,0.12792969,0.1003418,0
1.081543,0.10229493,0.10375977,0
1.0449219,0.075683594,0.10913086,0
1.0534668,0.016845703,0.12182617,0
1.0366211,-0.048095703,0.11645508,0
1.0012207,-0.06616211,0.10131836,0
0.9948731,0.008544922,0.11328126,0
1.0007324,0.046386722,0.10375977,0
1.0686035,0.047851566,0.2775879,0
0.64208984,0.024414063,0.45922852,0
2.314209,0.16259766,0.0703125,0
0.92236334,0.24047853,-0.008056641,0
0.9511719,0.22045898,0.08032227,0
0.75439453,0.42700195,0.13671875,0
0.9265137,0.2602539,0.13842773,0
1.0527344,0.41235352,0.064941406,0
0.91845703,0.25073242,0.052490234,0
1.0266113,0.09326172,0.106933594,0
1.017334,0.030029297,0.17822267,0
0.9987793,-0.017578125,0.14501953,0
0.9440918,0.0859375,0.10131836,0
0.95874023,0.23291016,0.37646484,0
0.95874023,0.23291016,0.37646484,0
1.0454102,0.20117188,0.29223633,0
1.0078125,0.17919922,0.27661133,0
0.97094727,0.18237305,0.2512207,0
0.93066406,0.17675783,0.20776367,0
0.89282227,0.1574707,0.21118166,0
0.8747559,0.13012695,0.21142578,0
0.8769532,0.21972656,0.15136719,0
1.0012207,0.36499023,0.1616211,0
1.2788086,0.83593756,-0.022216797,0
1.1254883,0.9377442,0.043945313,0
1.1738281,0.85180664,-0.1381836,0
1.1140137,0.88964844,-0.15283203,0
1.0678711,0.9211426,-0.23510742,0
0.9970704,0.93066406,-0.27026367,0
0.81225586,0.86499023,-0.1772461,0
0.75439453,0.7873535,-0.189209,0
0.47827148,0.52685547,-0.095214844,0
0.42358398,0.5205078,-0.076171875,0
0.3952637,0.48217773,-0.08032227,0
0.45483398,0.6789551,0.091796875,0
0.5366211,0.61865234,0.084228516,0
0.61938477,0.45581055,0.4450684,0
0.94189453,0.35620117,0.55029297,0
0.9277344,0.5239258,0.13012695,0
0.1743164,1.0107422,-0.40429688,0
0.17163087,1.0466309,-0.23388673,0
0.09887695,1.2753906,0.21875,0
0.108154304,1.0100098,-0.10107422,0
0.046142578,1.1130371,-0.14916992,0
0.13452148,1.1818848,-0.140625,0
0.28881836,0.83203125,-0.1381836,0
0.52734375,0.66821295,0.18066406,0
0.5151367,0.59399414,0.100830086,0
0.5529785,0.65112305,0.012451172,0
0.44140628,1.2145996,-0.120605476,0
0.31909183,1.1794434,-0.10253906,0
0.29370117,1.1083984,-0.021972656,0
0.10986328,0.9914551,0.17309572,0
0.12207032,0.9499512,0.20532228,0
-0.036621094,0.82470703,0.26245117,0
-0.004394531,1.0595703,0.23852539,0
0.36035156,1.170166,0.46704105,0
0.18847658,0.70190436,0.1586914,0
-0.19653322,0.9436036,-0.12597656,0
-0.01879883,1.0866699,0.41992188,0
0.21850587,0.8405762,0.52124023,0
-0.06225586,0.8813477,0.11767579,0
0.020507813,1.0512695,0.17700195,0
0.19360353,0.93042,0.4243164,0
0.11010742,0.83325195,0.3779297,0
0.08325196,0.93066406,0.36328125,0
0.04492188,0.9011231,0.37939453,0
0.044189457,0.9272461,0.40527344,0
0.13305664,0.9152832,0.3513184,0
0.11010742,0.878418,0.3449707,0
0.091796875,0.9001465,0.4187012,0
0.09497071,0.91650397,0.49121097,0
0.07055664,0.8833008,0.43652344,0
0.03540039,0.88305664,0.40161133,0
0.021728517,0.85375977,0.35961914,0
-0.029052736,0.9448242,0.3876953,0
-0.030273438,0.98413086,0.421875,0
-0.1027832,0.8288574,0.41992188,0
-0.1394043,0.8681641,0.39624023,0
-0.1394043,0.8681641,0.39624023,0
-0.099853516,0.83227545,0.26879883,0
-0.10522462,0.9487305,0.033691406,0
0.23583984,1.0178223,0.12695313,0
0.44262695,1.3845215,-0.22656251,0
0.42651367,1.0922852,-0.13208008,0
0.35888672,0.89892584,0.012207031,0
0.34057617,0.8815918,0.055664063,0
0.18603516,0.756836,-0.003662109,0
0.30639648,0.9343262,0.009521484,0
0.3149414,1.1289063,0.035888672,0
0.03540039,1.0070801,-0.10620117,0
0.033935547,1.0400391,0.19189453,0
0.07519532,1.1230469,0.25439453,0
0.11376953,1.0385742,0.21997072,0
0.20458986,0.93066406,0.20922852,0
0.27734375,0.9863281,0.19995117,0
0.26879883,0.98022467,0.099609375,0
0.21118166,0.9274903,0.087402344,0
0.2023926,1.0239258,0.11401368,0
0.17822267,1.0705566,0.14086914,0
0.16723634,0.9892578,0.17333984,0
0.16723634,0.9892578,0.17333984,0
0.17211914,1.0419922,0.2023926,0
0.15112306,1.0212402,0.20751955,0
0.112548836,1.0334473,0.23754884,0
0.13696289,1.0083008,0.27368164,0
0.47485352,0.8339844,0.3166504,0
0.120605476,0.71508795,0.114990234,0
-0.05419922,0.9274903,0.48022464,0
-0.09301758,1.060791,0.53344727,0
-0.14550781,0.9562988,0.23510742,0
-0.08764649,0.92211914,0.30541992,0
-0.03930664,0.99438477,0.41186523,0
-0.12719727,0.8449707,0.36694336,0
-0.16381836,0.9343262,0.49829102,0
0.13354492,0.7470703,0.5996094,0
0.076171875,0.63183594,0.5083008,0
-0.051513676,0.7182617,0.45214844,0
-0.24707033,1.1105957,0.48999023,0
-0.39697266,0.9519043,0.6047363,0
-0.5053711,0.98242193,0.4555664,0
-0.5053711,0.98242193,0.4555664,0
-0.23681642,0.89965826,0.36621094,0
-0.3474121,0.87231445,0.43115237,0
-0.23071289,0.79565436,0.41943362,0
-0.23071289,0.79565436,0.41943362,0
-0.05834961,1.0664063,0.28808594,0
-0.17114258,0.65185547,0.24682617,0
-0.17114258,0.65185547,0.24682617,0
-0.17114258,0.65185547,0.24682617,0
-0.20385744,0.690918,0.48461917,0
0.21655273,0.8449707,0.5683594,0
0.20996094,1.2304688,1.0834961,0
-0.19995117,0.5361328,0.958252,0
-0.19995117,0.5361328,0.958252,0
-0.20996094,0.71850586,0.63061523,0
0.006103516,0.7416992,0.07519532,0
0.27416992,0.944336,-0.05102539,0
0.27416992,0.944336,-0.05102539,0
0.28393555,0.97094727,-0.03759766,0
0.5566406,1.1252441,0.07373047,0
0.7141113,0.97998047,0.060302738,0
0.7036133,0.92871094,-0.11816406,0
0.3586426,0.5744629,-0.001464844,0
0.234375,0.8212891,0.18969727,0
-0.016601563,0.8027344,0.39990234,0
-0.23901369,1.0290527,0.49829102,0
0.028808594,1.2092285,0.56030273,0
0.0456543,1.1569824,0.44091797,0
-0.25512695,1.0043945,-0.05004883,0
-0.40722656,0.9875489,-0.008056641,0
0.12109375,0.82666016,0.37158203,0
0.028564453,0.7705078,0.22827148,0
0.000244141,0.8344727,0.060302738,0
0.06225586,1.2524414,0.17749025,0
-0.03051758,1.2524414,0.36328125,0
0.034423828,1.0981445,0.40600586,0
0.029541016,0.9182129,0.37817383,0
-0.06225586,0.5559082,0.22924805,0
-0.015625,0.39868164,0.17919922,0
-0.04321289,0.26098633,0.22143556,0
0.23022462,0.60791016,0.2980957,0
0.45483398,0.642334,0.05102539,0
0.49707034,0.46948242,-0.31542972,0
0.8273926,1.0925293,-0.30126953,0
0.8742676,0.9929199,0.004882813,0
0.8742676,0.9929199,0.004882813,0
1.2912598,0.48510742,-0.18701173,0
1.4689943,0.32348636,-0.23486328,0
1.3635255,0.4338379,0.08227539,0
1.2612305,0.25830078,0.106933594,0
1.2478029,0.23120117,0.116210945,0
1.0881348,0.017578125,0.21582031,0
0.8430176,-0.07006836,0.2770996,0
0.8378906,-0.03833008,0.26293945,0
0.85595703,0.06518555,0.25585938,0
0.9450684,0.29248047,0.19604492,0
0.82861334,0.30541992,0.30224612,0
0.96923834,0.2927246,0.08666992,0
1.1335449,0.27197266,-0.021484375,0
1.1374512,0.20361328,-0.03564453,0
1.1455078,0.1496582,-0.041748047,0
0.97265625,-0.041503906,-0.107666016,0
0.95703125,0.006835938,-0.18627931,0
1.0092773,-0.02685547,-0.21411134,0
0.9909668,0.29370117,-0.27807617,0
0.9152832,0.06713867,-0.23754884,0
0.9152832,0.06713867,-0.23754884,0
0.94213873,0.05859375,-0.16503908,0
1.050293,0.10205078,-0.10302735,0
0.9875489,-0.036621094,-0.05493164,0
1.1765137,0.11303711,-0.27734375,0
0.8510742,-0.23486328,0.072753906,0
0.9077149,-0.051513676,0.15527344,0
0.98657227,0.013183594,0.16308594,0
1.0466309,0.08251954,0.13916016,0
1.0952148,0.27954102,0.056884766,0
0.9584961,0.24243164,-0.005615235,0
0.94970703,0.22705078,-0.01123047,0
0.97290045,0.18383789,0.021240234,0
1.0595703,0.17871094,0.025390627,0
1.036377,0.14453125,0.0234375,0
0.8654785,0.14355469,0.064941406,0
0.79931647,0.16381836,0.13354492,0
0.8383789,0.19311523,0.17871094,0
1.1345215,0.037353516,0.08569336,0
1.1591797,-0.011962892,0.11010742,0
0.93359375,0.020996096,0.24560548,0
0.8210449,0.07128906,0.33129883,0
0.9411621,0.022216797,0.26708984,0
0.93261725,-0.048583988,0.19897461,0
0.90600586,-0.024414063,0.17016603,0
0.8618164,0.016357422,0.20629883,0
0.8742676,-0.046142578,0.28857422,0
0.9226074,-0.002197266,0.27246094,0
1.0273438,-0.016601563,0.2290039,0
1.0246582,0.009033203,0.18017578,0
0.9670411,-0.00390625,0.18310547,0
0.9526367,0.004150391,0.17675783,0
0.9614258,0.022705078,0.16821289,0
0.9562988,-0.019042969,0.13085938,0
1.0068359,0.03100586,0.15283203,0
0.99072266,0.03125,0.1508789,0
0.9707032,0.005371094,0.15136719,0
0.9670411,0.010498048,0.16015625,0
0.9367676,0.017822266,0.17333984,0
0.91210943,-0.026611328,0.18554689,0
0.9648438,0.020507813,0.18237305,0
0.91845703,0.01123047,0.18408205,0
0.8823242,-0.005126953,0.19506837,0
0.9016113,0.014892579,0.1977539,0
0.9321289,0.05126953,0.21484376,0
0.95336914,0.00390625,0.22705078,0
0.98999023,0.061523438,0.23681642,0
0.9301758,-0.08203125,0.19799806,0
0.8112793,0.029541016,0.21191408,0
0.72534186,-0.2055664,0.17163087,0
0.72534186,-0.2055664,0.17163087,1
0.7265625,-0.042724613,-0.0078125,1
0.7070313,-0.25732422,-0.08569336,1
0.65527344,-0.41381836,-0.2722168,1
0.41455078,-0.20703125,-0.53100586,1
0.18041994,-0.6928711,-0.45336914,1
0.095214844,-0.59155273,-0.48999023,1
-0.1640625,-0.49633792,-0.11791992,1
-0.11206055,0.33862305,-0.21044923,1
0.6501465,0.37060547,0.08276367,1
1.5793457,1.5363771,1.7089844,1
1.5793457,1.5363771,1.7089844,1
1.5793457,1.5363771,1.7089844,1
2.3063965,0.60742193,2.237793,1
1.130127,1.546631,0.6237793,1
1.0532227,0.99633795,1.0876465,1
1.0532227,0.99633795,1.0876465,1
0.09448242,0.8918457,0.857666,1
0.27661133,0.91625977,0.50219727,1
0.042724613,0.5136719,0.29296875,1
-0.022705078,0.5563965,0.21826172,1
-0.2578125,0.75268555,0.24902344,1
-0.39599612,0.67480475,0.33789063,1
-0.1652832,0.6804199,0.26831055,1
-0.331543,0.46044925,0.18969727,1
-0.24291992,0.5942383,0.20385744,0
0.08081055,0.6208496,0.09375,0
-0.21362305,0.58813477,-0.12158203,0
-0.19238281,0.8344727,-0.09887695,0
0.008789063,1.8552246,0.05834961,0
0.29296875,1.5859375,0.7507324,0
-0.22924805,0.6765137,0.6245117,0
0.26464844,0.28125,0.67480475,0
0.26464844,0.28125,0.67480475,0
0.14233398,0.5600586,0.53027344,0
0.14233398,0.5600586,0.53027344,0
0.2590332,0.9082031,0.60546875,0
0.2590332,0.9082031,0.60546875,0
0.28051758,1.0810547,0.6269531,0
0.28051758,1.0810547,0.6269531,0
-0.1352539,1.0341797,0.6694336,0
-0.1352539,1.0341797,0.6694336,0
-0.5024414,0.7126465,0.7558594,0
-0.5024414,0.7126465,0.7558594,0
-0.8251953,0.60424805,0.78222656,0
0.15405275,0.21777345,0.56518555,0
0.80126953,0.44018555,0.40771487,0
0.80126953,0.44018555,0.40771487,0
1.270752,0.6062012,0.61743164,0
0.02246094,0.2294922,1.2927246,0
-0.008544922,0.70849615,0.6572266,0
-0.19189453,1.0439453,0.55688477,0
-0.43530273,1.2727052,0.5949707,0
-0.028076172,1.0393066,0.057617188,0
0.20996094,0.17553711,0.6403809,0
0.2697754,-0.69921875,1.8862305,0
0.23535158,-0.13720703,1.3129884,0
0.41601563,1.3884279,0.22631836,0
-0.5239258,0.88378906,0.3173828,0
-0.20117188,0.8806153,0.6333008,0
-0.43823242,0.91625977,0.36987305,0
-0.34960938,1.1535645,0.23950195,0
-0.50390625,1.1948242,0.2680664,0
-0.3586426,0.90649414,0.20507813,0
-0.3347168,0.8991699,0.22070314,0
-0.33666995,0.78637695,0.0234375,0
-0.33203125,0.60791016,-0.1760254,0
-0.23803711,1.8666993,0.021484375,0
-0.25463867,0.040039063,0.3076172,0
-0.13696289,0.25878906,0.31909183,0
0.4487305,2.9086916,0.03857422,0
0.49243164,1.8588867,1.2302247,0
-0.20043945,0.60253906,0.94580084,0
-0.07788086,0.41186523,0.55688477,0
0.5275879,0.79956055,1.2541504,0
0.30908203,0.6569824,1.0090332,0
0.077392586,0.5932617,0.82299805,0
-0.049072266,0.7001953,0.6359864,0
-0.01171875,0.7373047,0.5144043,0
0.041748047,0.89624023,0.56274414,0
0.060058594,0.36108398,0.16015625,0
0.5834961,0.6066895,-0.033691406,0
0.5864258,0.1237793,0.09350587,0
0.61938477,0.35302734,0.4243164,0
0.61938477,0.35302734,0.4243164,0
0.97949225,1.0339355,-0.06518555,0
1.1713867,-0.40795898,0.19311523,0
1.6552734,-0.29345703,0.36230472,0
1.4675294,0.82495123,-0.5649414,0
1.3356935,0.051513676,-0.33300784,0
1.206543,-0.036376953,-0.11352539,0
1.1398926,-0.22387695,0.16625977,0
1.0129395,0.013183594,0.23120117,0
0.8486328,-0.23486328,0.06518555,0
0.8078613,-0.23046875,-0.03857422,0
0.55371094,-0.501709,0.1508789,0
0.65429693,-0.38720706,0.27612305,0
1.0808105,-0.40722656,-0.03491211,0
1.0268555,-0.15673828,-0.10205078,0
1.0566406,-0.23657227,0.1994629,0
1.2597656,-0.095947266,-0.13720703,0
1.152832,-0.24731445,0.052246097,0
1.2971191,-0.33691406,0.05053711,0
2.1584473,-0.9338379,-0.13867188,0
2.2827148,-1.6838379,-0.5053711,0
1.6330568,2.0961914,-0.17211914,0
-0.08886719,1.2558595,-0.28442383,0
-1.5219727,0.49414065,-0.43237305,0
-1.1472168,-0.27661133,0.6096192,0
-1.175293,-1.9367676,2.1489258,0
5.236328,-0.5683594,0.40527344,0
1.5263672,-0.36547852,0.82006836,0
1.4914551,-0.081054695,0.36499023,0
1.223877,0.06274414,-0.020019531,0
1.5849609,0.16235352,0.20043945,0
1.6206056,-0.107910156,0.07836914,0
1.0944824,-1.4243165,-0.4909668,0
1.2321777,-1.5493164,0.016845703,0
0.8234864,-1.3825685,-0.47265625,0
0.8442383,-1.1311035,-0.6191407,0
0.8850098,-1.3081055,-0.45605472,0
0.75878906,-1.0534668,-0.45971683,0
0.7858887,-0.545166,-0.3820801,0
0.69824225,-0.57373047,-0.24829102,0
0.5529785,-0.4008789,-0.22509767,0
0.22705078,-0.18139648,-0.110839844,0
0.18896484,-0.1706543,-0.06713867,0
0.07373047,0.23510742,-0.05908203,0
0.07080078,0.2548828,-0.05297852,0
0.09667969,0.21118166,-0.048828125,0
0.36791992,0.15332033,-0.044433594,0
0.8935547,0.28222656,-0.19311523,0
1.2275391,0.15332033,-0.38330078,0
1.2290039,-0.32910156,-0.4807129,0
1.2436523,-0.2175293,-0.07104492,0
1.1591797,-0.2680664,0.041015625,0
0.7746582,-0.2849121,-0.08520508,0
0.54956055,0.31982425,-0.20141602,0
0.3552246,-0.092773445,-0.12597656,0
0.15014648,-0.47631836,0.052001953,0
1.4423828,0.37036136,-0.06689453,0
1.7453613,0.36621094,-0.020019531,0
1.6865236,0.15014648,-0.18041994,0
0.9272461,-0.8232422,0.1328125,0
0.9272461,-0.8232422,0.1328125,0
0.8508301,-0.31860352,0.0546875,0
0.7607422,-0.28955078,0.10205078,0
0.9995117,0.4711914,0.2294922,0
0.9350586,0.008300781,0.19384766,0
0.97094727,-0.00390625,0.17407227,0
0.97094727,-0.00390625,0.17407227,0
0.97998047,-0.034423828,0.10375977,0
1.036377,-0.032958984,0.06103516,0
1.036377,-0.032958984,0.06103516,0
1.0412598,-0.088134766,0.06103516,0
1.0141602,-0.03833008,0.10986328,0
0.99243164,-0.11035157,0.08203125,0
0.9741211,-0.15820313,0.045898438,0
0.9018555,-0.21191408,0.08691407,0
0.857666,-0.2788086,0.09423829,0
0.81835943,-0.44360355,0.02685547,0
0.79907227,-0.26953125,0.06176758,0
0.79907227,-0.26953125,0.06176758,0
0.9929199,-0.18359375,-0.043457035,0
0.8796387,-0.25024414,-0.026123049,0
0.83496094,-0.49633792,-0.035888672,0
0.83496094,-0.49633792,-0.035888672,0
0.21704103,-0.30639648,0.15307617,0
0.23974611,-0.13867188,0.049804688,1
0.34448242,-0.10302735,0.016357422,1
0.27294922,-0.12231445,-0.024414063,1
0.14208984,0.016113281,-0.018554688,1
0.07910156,0.12524414,-0.39746097,1
-0.037109375,-0.34985355,-0.33886722,1
-0.1418457,0.45874023,-0.28930664,1
-0.048095703,0.33544922,0.32250977,1
-0.048095703,0.33544922,0.32250977,1
0.20019533,-0.921875,-0.36694336,1
0.20019533,-0.921875,-0.36694336,1
3.6574707,1.2338868,3.0405276,1
3.6574707,1.2338868,3.0405276,1
4.7006836,-1.0400391,1.4101563,1
4.7006836,-1.0400391,1.4101563,1
1.4208984,0.6875,0.86621094,1
1.4208984,0.6875,0.86621094,1
0.53100586,1.3513184,0.6367188,1
0.53100586,1.3513184,0.6367188,1
0.16113281,0.28833008,0.62792975,1
0.16113281,0.28833008,0.62792975,1
0.40795898,0.65209967,0.6623536,1
0.40795898,0.65209967,0.6623536,1
-0.75463873,0.33081058,0.45385745,1
-0.006103516,0.6403809,0.6489258,1
0.7209473,1.3093263,1.7517091,0
0.7209473,1.3093263,1.7517091,0
-0.08764649,0.32958984,0.7495118,0
-0.08666992,0.3044434,0.6591797,0
0.022949219,0.48632813,0.78930664,0
-0.029541016,0.81811523,0.86206055,0
0,1.0930176,0.54345703,0
-0.087402344,1.1767578,0.7241211,0
0.013183594,0.4423828,0.75,0
0.24584961,0.6442871,0.73876953,0
0.13842773,0.37939453,0.7307129,0
0.051757813,-0.10864258,0.70874023,0
-0.058105472,0.5913086,1.0822754,0
0.0690918,0.6230469,0.8034668,0
0.056396484,0.5773926,0.7392579,0
-0.30004886,0.56884766,0.8601075,0
0.048828125,0.74877936,0.6855469,0
-0.047607422,0.48657227,1.0080566,0
-0.37109378,0.51953125,0.736084,0
-0.35571292,0.5317383,0.57470703,0
-0.31079102,0.6159668,0.5078125,0
-0.5756836,0.6191407,0.46118167,0
-0.7875977,0.38989258,0.5251465,0
-0.40795898,0.4909668,0.6130371,0
-0.14868164,0.8625488,0.65527344,0
-0.20727539,0.7832032,0.9440918,0
-0.001464844,0.9724121,0.7770996,0
0.3483887,0.47460938,1.0205078,0
0.37353516,0.2355957,1.0512695,0
-0.06323242,0.5029297,1.2766113,0
0.37402347,0.8625488,1.1459961,0
-0.22851563,1.2905273,1.0373535,0
-0.345459,0.70483404,0.8103028,0
-0.21044923,0.73828125,0.61108404,0
0.1538086,0.44287112,0.7902832,0
0.43261722,0.22705078,0.7041016,0
0.49023438,0.2126465,0.6235352,0
0.48657227,0.15307617,0.34814453,0
0.48657227,0.15307617,0.34814453,0
0.61474615,0.28686523,0.03515625,0
0.94091797,0.29467773,-0.34619144,0
1.1384277,-0.36669925,-0.11230469,0
1.0339355,0.9580078,0.40112308,0
0.28710938,-0.17138672,-0.025878906,0
0.98046875,0.35473633,0.60839844,0
1.2302247,0.32983398,0.11743164,0
1.5256348,-0.05419922,-0.045410156,0
1.2106934,-0.16259766,-0.265625,0
1.4072266,0.14355469,-0.032714844,0
1.1452637,0.27246094,-0.06933594,0
0.93261725,-0.033447266,-0.29833984,0
0.96264654,-0.23974611,-0.059814453,0
0.6320801,-0.5546875,-0.57250977,0
0.9279785,-0.012451172,-0.087402344,0
0.9382324,-0.1171875,-0.096435554,0
0.75561523,-0.06591797,-0.32958984,0
0.75561523,-0.06591797,-0.32958984,0
1.0319824,-0.011962892,-0.96435547,0
1.2333984,-0.013671875,-0.53930664,0
1.1516113,-0.18774416,-1.1320801,0
1.3337402,-0.29858398,-0.70776373,0
1.2578125,-0.2927246,-0.47998047,0
1.0671387,-0.3747559,-0.8178711,0
0.8850098,-0.22045898,-0.92895514,0
0.8479004,-0.12939453,-0.7939453,0
0.9670411,-0.118652344,-1.0585938,0
1.0964355,-0.1723633,-0.84594727,0
0.8535157,-0.43432617,-0.4853516,0
0.6647949,-0.89624023,-0.34375,0
0.70874023,-0.16699219,-1.1765137,0
0.6667481,-1.1650391,-0.7304688,0
0.69140625,-1.0842285,-0.8798829,0
1.0349121,-0.8010254,-0.96875,0
1.0864258,-0.7604981,-0.81811523,0
0.8845215,-0.7402344,-0.6206055,0
0.8618164,-0.44995117,-0.53637695,0
0.6218262,-0.05371094,-0.3347168,0
0.4248047,0.19726564,-0.22827148,0
0.23535158,0.34643555,-0.021972656,0
0.19238281,0.38598633,-0.014160157,0
0.23461916,-0.118896484,0.036132813,0
0.517334,-0.19726564,-0.03564453,0
0.51782227,-0.038085938,0.014404297,0
0.529541,-0.10302735,-0.018310547,0
0.8173828,-0.17822267,-0.27783203,0
1.0344238,0.2023926,-0.50439453,0
1.0405273,0.27319336,-0.5422363,0
1.0620117,0.11450195,-0.5515137,0
0.78808594,0.12890625,-0.39794922,0
0.7036133,0.17944336,-0.34277344,0
0.48388675,-0.3881836,-0.054443363,0
0.83618164,-0.30273438,0.11669922,0
1.7626954,0.099609375,0.46289063,0
1.6191407,-0.10253906,0.21313477,0
0.91967773,-0.001220703,0.12670898,0
1,0.33300784,0.095947266,0
0.8869629,0.3005371,-0.24511719,0
0.85595703,0.378418,-0.21777345,0
0.9914551,0.5029297,-0.04736328,0
0.9914551,0.5029297,-0.04736328,0
1.0788574,0.29101563,-0.265625,0
1.0537109,0.12475586,-0.036865234,0
1.0700684,-0.08154297,0.2121582,0
1.0178223,-0.234375,0.23242189,0
1.0124512,-0.15014648,0.21997072,0
0.99267584,-0.046386722,0.17773438,0
0.97680664,0.11743164,0.1105957,0
0.9013672,0.19238281,0.13916016,0
0.90258795,0.09887695,0.19628906,0
0.8710938,0.000976563,0.20727539,0
0.888916,-0.03125,0.21240234,0
0.9621582,-0.001953125,0.24023438,0
1.0241699,0.05004883,0.24536133,0
1.0266113,0.03149414,0.23950195,0
1.0178223,-0.011962892,0.22973633,0
0.92407227,-0.018066406,0.19897461,0
0.85595703,-0.021728517,0.17773438,0
0.85839844,-0.020507813,0.16870119,0
0.91650397,-0.010253906,0.1538086,0
0.9206543,-0.060058594,0.11645508,0
0.7380371,-0.047607422,0.05297852,0
0.82373047,-0.01171875,0.040771484,0
0.83227545,-0.20312501,0.006347657,0
0.73876953,-0.07055664,-0.008789063,0
0.7023926,-0.13891602,-0.099853516,0
0.5419922,-0.34106448,-0.13720703,0
0.5419922,-0.34106448,-0.13720703,1
0.70483404,-0.17700195,-0.120605476,1
0.70483404,-0.17700195,-0.120605476,1
0.4050293,-0.3981934,-0.110839844,1
0.4050293,-0.3981934,-0.110839844,1
0.48657227,-0.039794926,-0.0859375,1
0.48657227,-0.039794926,-0.0859375,1
0.38745117,-0.1003418,-0.092285156,1
0.38745117,-0.1003418,-0.092285156,1
0.27441406,-0.33886722,-0.1381836,1
0.27441406,-0.33886722,-0.1381836,1
0.5300293,0.5270996,-0.9020996,1
2.567383,-2.0129395,-0.13110352,1
3.1987307,-0.06347656,1.3552246,1
3.1987307,-0.06347656,1.3552246,1
1.9094238,0.26635742,1.0461426,1
0.5600586,0.25805664,0.5632324,1
0.33959964,0.30737308,0.38745117,1
0.2294922,0.7810059,0.9001465,1
-0.042724613,0.80688477,0.9284668,1
-0.1105957,0.93042,0.6171875,1
0.017578125,0.79956055,0.30541992,1
0.37939453,0.6760254,0.43115237,1
0.29589844,0.9309082,0.6677246,1
-0.08276367,0.83959967,0.83569336,1
-0.35253906,0.578125,0.87646484,0
-0.43652344,0.40795898,0.8642578,0
-0.5090332,0.54003906,0.6845703,0
-0.25854492,0.58618164,0.55981445,0
-0.21704103,0.7062989,0.54052734,0
-0.21118166,0.7416992,0.5185547,0
-0.18334962,0.5822754,0.54541016,0
0.03564453,1.114502,0.6123047,0
0.10205078,0.83691406,0.7373047,0
0.114990234,0.7050781,0.7702637,0
0.125,0.6594239,0.7465821,0
0.054443363,0.6970215,0.6425782,0
-0.02368164,0.79174805,0.6059571,0
-0.009277344,1.0410156,0.7109375,0
-0.14794922,0.5656738,0.53637695,0
-0.08959961,0.7636719,0.55371094,0
-0.087402344,0.4411621,0.6274414,0
0.017822266,0.5866699,1.2692871,0
-0.027832031,0.7133789,0.80126953,0
0.09887695,0.16894531,0.72534186,0
0.20458986,0.6704102,0.6403809,0
0.33129883,0.9509278,0.7668457,0
-0.054443363,0.30541992,0.6347656,0
0.47485352,0.9985352,0.47070315,0
0.35083008,1.1108398,0.38647464,0
-0.007324219,1.168457,0.071777344,0
-0.1430664,1.0932617,0.2290039,0
-0.12939453,1.0695801,0.32910156,0
-0.18432617,1.0112305,0.2512207,0
-0.35937503,0.82568365,0.30273438,0
-0.46704105,0.6535645,0.31396487,0
-0.3413086,0.8376465,0.16381836,0
-0.1340332,1.166748,0.08764649,0
-0.08691407,1.0280762,0.4216309,0
0.21044923,1.2319336,0.6601563,0
0.20874023,1.1687012,0.68115234,0
0.058105472,0.9375,0.7307129,0
0.053466797,0.90356445,0.7207031,0
-0.20922852,1.1967773,0.8312988,0
-0.49633792,1.1713867,0.7307129,0
-0.18164063,0.7060547,1.0869141,0
-0.20483398,0.64819336,0.7961426,0
0.000976563,0.7519531,0.30200195,0
0.056396484,-0.05664063,-0.09301758,0
0.8796387,0.6086426,-0.35327148,0
1.2507325,0.29858398,0.20678712,0
1.4736328,-0.65405273,0.756836,0
0.5373535,0.6245117,-0.13793945,0
0.5373535,0.6245117,-0.13793945,0
0.26171875,0.4223633,0.24340822,0
1.1911621,0.32739258,0.25976563,0
1.4692383,-0.16699219,-0.123046875,0
1.4138184,-0.28637695,-0.5827637,0
1.2145996,-0.37524414,-0.48681644,0
0.9650879,0.1525879,-0.1525879,0
1.1005859,0.03881836,0.26757813,0
0.8469239,-0.36791992,-0.44921875,0
1.0944824,-0.20410156,-0.25390625,0
0.789795,-0.5422363,-0.6264649,0
1.1435547,0.014892579,-0.38964844,0
1.4587404,-0.25512695,-0.30078128,0
1.3723146,-0.62500006,-0.80200195,0
1.3894043,-0.69628906,-0.41015625,0
1.3798828,-0.51660156,-0.30493164,0
1.2355957,-0.41479492,-0.5354004,0
1.0332031,-0.56103516,-0.61767584,0
0.763916,-0.94653326,-0.38549805,0
0.73217773,-0.55029297,-0.79003906,0
1.1525879,-0.16870119,-0.87231445,0
0.9670411,-0.6535645,-0.7473145,0
0.96240234,-0.6188965,-0.6958008,0
0.87280273,-0.43530273,-0.5605469,0
0.63916016,-0.30200195,-0.31030276,0
0.4750977,-0.052001953,-0.22338867,0
0.3815918,0.018310547,-0.18676758,0
0.2055664,-0.022216797,-0.14746094,0
0.23828126,0.024414063,-0.07397461,0
0.21899414,0.25390625,-0.07885743,0
0.29663086,0.14208984,-0.15161133,0
0.4272461,0.125,-0.18164063,0
0.55566406,0.09667969,-0.18798828,0
0.763916,0.18359375,-0.20874023,0
1.0986328,0.10302735,-0.20776367,0
0.9208985,-0.109375,-0.26708984,0
0.88256836,0.4423828,-0.24414064,0
0.43334964,-0.27197266,-0.06982422,0
0.14526367,-0.6838379,-0.12084961,0
0.44018555,-0.10205078,-0.17626953,0
1.3293457,0.048828125,0.35644534,0
1.7336426,-0.15429688,0.4880371,0
1.7602539,0.09008789,0.24145508,0
1.3518068,0.2980957,0.060058594,0
0.9711914,0.08251954,0.21411134,0
0.9206543,0.3881836,0.028076172,0
0.86523443,0.20263672,0.09692383,0
0.9487305,0.026367188,0.35888672,0
1.1140137,0.004882813,0.27905273,0
1.0522461,-0.06542969,0.26245117,0
1.0270996,-0.053955078,0.27929688,0
0.9677735,-0.07543945,0.18237305,0
0.9069825,0.0078125,0.019531252,0
0.92968756,0.0637207,0.006103516,0
0.86230475,-0.047607422,0.034423828,0
0.89306647,-0.014648438,0.13916016,0
0.8552246,-0.055419922,0.1760254,0
0.8745117,-0.030273438,0.16430666,0
0.89208984,-0.004394531,0.1657715,0
0.951416,-0.02368164,0.17700195,0
0.97656256,-0.010742188,0.16796876,0
1.0078125,-0.04125977,0.2084961,0
1.0078125,-0.04125977,0.2084961,0
0.98315436,-0.0859375,0.12573242,0
0.9958496,-0.020263674,0.19165039,0
0.9741211,-0.053955078,0.17651367,0
0.96630865,-0.042724613,0.17138672,0
0.93652344,-0.051757813,0.17333984,0
0.84716797,-0.0793457,0.15063477,0
0.8344727,-0.095947266,0.13208008,0
0.7875977,-0.108154304,0.1105957,0
0.7875977,-0.108154304,0.1105957,0
0.7875977,-0.108154304,0.1105957,0
0.7875977,-0.108154304,0.1105957,1
0.67456055,-0.09326172,0.08276367,1
0.67456055,-0.09326172,0.08276367,1
0.51171875,-0.16552734,0.058105472,1
0.51171875,-0.16552734,0.058105472,1
0.3615723,-0.032470703,-0.1274414,1
0.3615723,-0.032470703,-0.1274414,1
0.25927734,-0.24365234,-0.22167969,1
0.25927734,-0.24365234,-0.22167969,1
-0.108886726,0.2553711,-0.24047853,1
-0.108886726,0.2553711,-0.24047853,1
0.6169434,0.8132325,0.05029297,1
0.5595703,0.61938477,-1.0463867,1
1.1088867,0.6665039,1.4797363,1
0.6730957,0.7275391,1.1835938,1
0.31689456,0.3173828,0.75561523,1
0.9379883,-0.12084961,0.39746097,1
0.80590826,0.2277832,0.3474121,1
-0.34887695,0.61572266,0.24243164,1
-0.5620117,0.69531256,0.6567383,1
-0.63525397,0.8549805,0.32470703,1
-0.5041504,0.63623047,0.41796878,1
-0.5041504,0.63623047,0.41796878,1
-0.40429688,0.9313965,0.4384766,1
-0.14331055,0.67553717,0.51831055,1
-0.014404297,0.8205567,0.6003418,0
0.05664063,0.8615723,0.7375488,0
0.05664063,0.8615723,0.7375488,0
-0.13232422,0.6501465,0.8730469,0
-0.07714844,0.59716797,0.7944336,0
-0.097167976,0.49682617,0.734375,0
-0.016113281,0.7631836,0.7175293,0
-0.037353516,0.72167975,0.7209473,0
0.22241211,0.5241699,0.98706055,0
0.24584961,0.30200195,0.93603516,0
0.5383301,0.48632813,0.54174805,0
0.5383301,0.48632813,0.54174805,0
0.42626953,1.0571289,0.5332031,0
0.014404297,0.34277344,0.56030273,0
0.17016603,0.67773443,0.63256836,0
0.26464844,0.86694336,0.65966797,0
0.1574707,0.8598633,0.48510742,0
0.14868164,0.8737793,0.41674805,0
0.15576172,1.0556641,0.26416016,0
0.22192383,1.0202637,0.29907227,0
0.1789551,0.9863281,0.2463379,0
0.17773438,0.99243164,0.18359375,0
0.022216797,0.9733887,0.22705078,0
0.18408205,0.95214844,0.24584961,0
0.018310547,0.9855957,0.18676758,0
-0.09692383,1.0327148,0.06933594,0
-0.096435554,1.0498047,0.20336914,0
-0.2993164,1.026123,0.14013672,0
-0.2763672,1.0095215,0.18188478,0
-0.26000977,0.9499512,0.09399414,0
-0.32470703,0.7211914,0.14672852,0
-0.19506837,1.0388184,0.08691407,0
-0.2023926,1.0598145,0.08959961,0
-0.1789551,1.0939941,0.21484376,0
-0.16992188,1.0866699,0.29077148,0
0.119873054,1.3630371,0.58374023,0
-0.10644531,1.3415529,0.28759766,0
-0.41918945,2.3061523,0.3010254,0
-0.52246094,1.8166504,0.1977539,0
-0.57592773,1.3444825,0.09692383,0
-0.425293,0.95605475,0.041015625,0
-0.51123047,0.76196295,-0.28320313,0
-0.1826172,0.5859375,-0.099853516,0
-0.1525879,0.44995117,0.20483398,0
-0.27148438,0.2783203,0.2175293,0
-0.29614258,0.5710449,0.58374023,0
-0.57250977,0.46337894,0.6472168,0
-0.5576172,0.21337892,0.5554199,0
-0.642334,0.41723636,0.689209,0
-0.71972656,0.46899414,0.6442871,0
-0.55249023,0.484375,1.015625,0
-0.31420898,0.5324707,1.3864746,0
-0.19311523,0.5969238,1.1291504,0
-0.027832031,-0.25048828,0.62866217,0
0.19042969,-0.33325195,0.57373047,0
0.39746097,0.48120117,0.8813477,0
-0.042236328,1.2297363,-0.8515625,0
0.08764649,0.63916016,-1.8178711,0
1.4699707,1.8339844,-2.3059082,0
1.7539064,2.0671387,-1.4399414,0
2.2370605,0.13330078,2.9125977,0
1.7172853,-1.8215332,0.21728516,0
1.4729004,0.34985355,-0.9970704,0
1.5905763,1.0393066,-0.6977539,0
0.9909668,0.36572266,0.89404297,0
1.5800781,-0.16210939,0.19921875,0
1.5842285,0.09326172,0.5004883,0
0.8955078,-0.38574222,-0.66796875,0
0.878418,-0.2734375,-0.6166992,0
0.9787598,-0.6394043,-0.40307617,0
0.75805664,-0.26098633,0.32568362,0
0.6430664,-0.36694336,0.21948242,0
0.68896484,-0.33203125,0.027587892,0
0.8344727,-0.5749512,0.11669922,0
0.7041016,-0.5498047,0.040527347,0
1.2739258,-0.60498047,-0.28466797,0
1.2739258,-0.60498047,-0.28466797,0
0.7172852,-0.17626953,-0.18652344,0
1.1171875,0.5246582,-0.34570313,0
1.0246582,-0.5637207,-0.1328125,0
0.9951172,0.37304688,0.067871094,0
0.7944336,-0.13696289,-0.43359375,0
1.0793457,-0.25512695,-0.6638184,0
0.87060547,-0.03051758,0.10571289,0
0.4580078,-0.11352539,0.26513672,0
0.97314453,-0.09106445,-0.8146973,0
1.3999023,-0.26464844,-0.923584,0
1.4355469,-0.15600586,-0.6933594,0
1.4355469,-0.15600586,-0.6933594,0
1.2690431,-0.8964844,-0.6762696,0
1.0068359,-1.6271974,-0.70190436,0
0.95654297,-0.67089844,-0.30297855,0
0.96337897,-1.0827637,-0.2553711,0
0.897461,-0.4182129,-0.46875,0
0.7368164,-1.052002,-0.67187506,0
0.8310547,-0.7453613,-0.62231445,0
0.9472657,-0.6179199,-0.5280762,0
1.0407715,-0.77612305,-0.53393555,0
0.7739258,-0.5078125,-0.3671875,0
0.6357422,-0.4284668,-0.3110352,0
0.3779297,-0.30566406,-0.26611328,0
0.15283203,-0.008056641,-0.06713867,0
0.11914063,0.04321289,-0.02685547,0
0.18017578,0.19677734,-0.13256836,0
0.23754884,0.29663086,-0.15405275,0
0.7502442,-0.27685547,-0.10571289,0
0.82495123,-0.39599612,-0.045898438,0
1.0473633,-0.67480475,-0.4248047,0
0.83227545,-0.23999023,-0.49536133,0
0.73852545,0.021728517,-0.44287112,0
0.7670899,0.14111328,-0.37353516,0
0.84594727,-0.09765625,-0.18603516,0
0.7763672,-0.1303711,-0.22875978,0
0.96533203,0.11914063,-0.4543457,0
0.83691406,0.13623047,-0.43627933,0
0.6791993,0.46972656,-0.21557619,0
0.48876953,0.06640625,-0.09765625,0
0.5151367,-0.022216797,-0.23583984,0
0.5151367,-0.022216797,-0.23583984,0
1.0554199,-0.057128906,-0.042724613,0
1.0554199,-0.057128906,-0.042724613,0
1.0527344,-0.2800293,0.06274414,0
1.2998048,0.036132813,0.072021484,0
1.2050781,-0.05004883,0.13476563,0
1.2050781,-0.05004883,0.13476563,0
0.95336914,-0.4487305,0.42260742,0
0.95336914,-0.4487305,0.42260742,0
1.0234375,-0.140625,0.31933594,0
1.0234375,-0.140625,0.31933594,0
0.93603516,-0.12597656,0.29052734,0
1.098877,0.2770996,0.10522462,0
1.111084,0.30566406,0.05297852,0
1.1064453,0.3146973,0.032226563,0
1.1032715,0.35302734,0.03759766,0
1.0153809,0.06762695,0.07714844,0
0.88256836,0.11425781,0.072753906,0
0.8574219,0.14624023,0.11547852,0
0.87548834,0.15600586,0.15185548,0
0.89941406,0.15039064,0.17773438,0
0.9382324,0.12890625,0.23974611,0
0.96362305,0.11914063,0.27416992,0
0.9733887,0.11279297,0.27319336,0
0.9667969,0.0925293,0.27148438,0
0.9562988,0.10205078,0.27685547,0
0.93896484,0.1340332,0.3034668,0
0.9445801,0.14453125,0.28735352,0
0.92578125,0.14257813,0.28198242,0
0.91381836,0.14331055,0.27661133,0
0.90527344,0.1525879,0.2758789,0
0.9020996,0.14111328,0.30224612,0
0.9226074,0.13134766,0.2841797,0
0.89404297,0.14404297,0.3232422,0
0.8803711,0.088134766,0.33569336,1
0.87182623,0.08984376,0.2919922,1
0.8232422,0.10107422,0.29418945,1
0.7351074,0.030273438,0.17382814,1
0.70874023,0.048339844,0.15039064,1
0.6791993,0.106933594,-0.09570313,1
0.6791993,0.106933594,-0.09570313,1
0.7106934,-0.19116211,-0.3747559,1
0.37036136,-0.5620117,-0.80517584,1
0.36303714,-0.5822754,-1.1000977,1
-0.42993164,-0.8908692,-1.1936035,1
-1.1308594,-0.23413086,-0.7858887,1
-0.8476563,-0.4885254,-1.3803712,1
4.8747563,7.3205566,7.971924,1
2.2299805,2.3562012,1.7368164,1
0.8215332,2.1347656,1.9953613,1
0.90258795,0.04321289,3.187012,1
0.90258795,0.04321289,3.187012,1
0.39770508,1.1359863,0.6845703,1
-0.83691406,0.3681641,0.1274414,1
-0.79003906,0.4638672,0.42309573,1
-0.68798834,0.40576172,0.27075195,1
-0.5695801,-0.21875,-0.072265625,1
-0.3869629,0.27001953,-0.14111328,1
-0.45385745,0.12866211,-0.21191408,1
-0.56762695,0.27905273,-0.5007324,0
-0.56762695,0.27905273,-0.5007324,0
-0.3417969,0.6984863,-0.6567383,0
-0.23339844,1.2004395,-0.6635742,0
-0.025878906,1.0185547,-0.66821295,0
0.080078125,1.220459,-0.6801758,0
-0.02734375,1.7636719,-0.75341797,0
0.95898443,1.1359863,2.199707,0
-0.5800781,2.2731934,-0.6394043,0
0.32275394,0.37646484,-0.44750977,0
-0.43969727,0.11401368,-0.6218262,0
-0.24560548,1.39209,0.30541992,0
-0.3183594,0.63720703,-0.046875,0
-0.27783203,0.8173828,-0.059814453,0
-0.1953125,1.4145508,-0.067871094,0
-0.21069336,1.3139648,0.04248047,0
0.16308594,1.6989747,0.21850587,0
-0.2956543,1.03125,0.42626953,0
-0.13623047,1.7172853,0.32543945,0
-0.14819336,1.1782227,0.81640625,0
-0.47680664,0.43823242,1.0004883,0
-0.6020508,0.70751953,0.33691406,0
-0.60815436,0.7578125,0.30883792,0
-0.43359375,0.5842285,0.12084961,0
-0.0859375,0.9147949,0.20996094,0
0.30957034,0.8679199,0.14746094,0
0.16723634,0.59521484,1.0205078,0
0.2006836,0.016845703,0.8786621,0
0.33081058,0.53759766,0.5629883,0
0.5517578,-0.24511719,0.18164063,0
1.2358398,1.1811523,0.7314453,0
1.0788574,0.15161133,0.7136231,0
0.7783203,0.23828126,0.17358398,0
0.560791,0.60156256,0.04296875,0
0.38330078,0.5517578,0.39916992,0
0.45703125,0.07055664,0.33959964,0
0.6066895,0.058105472,0.27001953,0
1.2700195,0.11401368,0.2043457,0
1.4885254,-0.13671875,-0.2590332,0
1.3791504,0.15527344,0.051513676,0
1.1706543,0.07861328,-0.1994629,0
1.1286621,-0.13452148,-0.33911133,0
0.9511719,0.10742188,0.14379883,0
0.8757324,-0.3046875,-0.06103516,0
0.92700195,-0.080078125,0.11669922,0
1.0568848,-0.06201172,0.1352539,0
1.0576172,-0.3112793,-0.030029297,0
0.60253906,-0.23632813,0.16503908,0
1.0449219,-0.24511719,0.28198242,0
1.4045411,-0.2800293,0.026123049,0
1.2138672,-0.7265625,-0.35986328,0
2.0339355,-0.21240234,0.33300784,0
1.5830078,-0.6611328,0.140625,0
0.6928711,0.78540045,-0.20410156,0
0.39648438,0.8872071,0.7687988,0
-0.064453125,0.7937012,0.87719727,0
-0.064453125,0.7937012,0.87719727,0
0.04736328,-0.016113281,1.0395508,0
0.17993164,0.2043457,0.7729493,0
0.1171875,0.018554688,0.08618165,0
2.9445803,-1.6757813,-1.9404297,0
2.9445803,-1.6757813,-1.9404297,0
0.8618164,0.5983887,0.6933594,0
-0.10668946,-0.19140626,-0.41552734,0
-0.10668946,-0.19140626,-0.41552734,0
-0.10668946,-0.19140626,-0.41552734,0
-0.10668946,-0.19140626,-0.41552734,0
1.1694336,0.21777345,-0.45385745,0
1.2197266,-0.48706055,-0.54003906,0
1.7351074,-0.1591797,-0.40917972,0
1.6113281,-0.1850586,-0.3520508,0
1.6113281,-0.1850586,-0.3520508,0
1.6113281,-0.1850586,-0.3520508,0
1.64917,-0.34033206,-0.23242189,0
1.496582,-0.106933594,-0.28881836,0
1.2685547,-0.14916992,-0.26831055,0
1.1660156,-0.3344727,-0.7165528,0
1.1442871,-0.38012695,-0.9279785,0
0.97949225,-0.60058594,-0.23217773,0
1.0773926,-0.5119629,-0.6220704,0
0.84912115,-0.4086914,-0.49658203,0
0.5463867,-0.1430664,-0.1706543,0
0.5463867,-0.1430664,-0.1706543,0
0.20947266,-0.0769043,-0.06103516,0
0.20117188,0.15039064,0.032714844,0
0.09350587,0.03955078,0.11914063,0
0.09350587,0.03955078,0.11914063,0
0.12353516,-0.028320314,0.10620117,0
0.30419922,0.047119144,0.15039064,0
0.30419922,0.047119144,0.15039064,0
0.6123047,-0.15649414,0.15014648,0
0.6123047,-0.15649414,0.15014648,0
0.78637695,0.023193361,-0.047607422,0
0.9274903,-0.033935547,-0.23486328,0
1.1276855,0.08032227,-0.3581543,0
1.1276855,0.08032227,-0.3581543,0
1.0544434,0.03466797,-0.2788086,0
1.0544434,0.03466797,-0.2788086,0
0.8806153,-0.112548836,-0.004882813,0
0.8806153,-0.112548836,-0.004882813,0
1.0263672,0.29711914,-0.16284181,0
0.97314453,0.13720703,-0.07299805,0
1.55542,0.7128907,-0.55566406,0
0.94653326,0.06518555,0.09863282,0
0.98657227,0.068115234,0.060058594,0
1.0029297,-0.06567383,0.033691406,0
0.944336,-0.10498047,0.058837894,0
0.921875,-0.17773438,0.09570313,0
0.921875,-0.17773438,0.09570313,0
0.921875,-0.17773438,0.09570313,0
0.921875,-0.17773438,0.09570313,0
0.7602539,-0.13549805,0.01879883,0
0.7895508,-0.18798828,-0.022705078,0
0.8041992,-0.0793457,-0.02685547,0
0.8786621,-0.17163087,-0.16601563,1
0.8786621,-0.17163087,-0.16601563,1
0.70581055,-0.27734375,-0.25830078,1
0.63623047,-0.09106445,-0.19140626,1
0.42871094,-0.22387695,-0.15234375,1
0.39501953,-0.124267586,-0.20361328,1
0.24609375,-0.30590823,-0.04931641,1
0.24609375,-0.30590823,-0.04931641,1
0.18041994,-0.27319336,-0.1159668,1
0.18041994,-0.27319336,-0.1159668,1
0.042724613,-0.40771487,0.3515625,1
0.25317383,0.5058594,-0.11450195,1
2.6572266,1.0932617,3.1254885,1
4.0805664,1.151123,1.4707031,1
2.3425293,2.0720215,1.0231934,1
0.088134766,0.90234375,1.1184082,1
0.37353516,0.71875006,1.6328125,1
-0.08227539,0.030761719,1.5371095,1
0.17626953,0.6704102,0.7705078,1
-0.17211914,0.39599612,0.12768555,1
0.11206055,1.2006836,0.49145508,1
0.28735352,0.83935547,0.18310547,1
0.1328125,0.59472656,-0.13598633,1
-0.1159668,1.0571289,-0.14233398,1
-0.21582031,0.8144531,-0.018066406,1
-0.6433106,0.7800293,-0.03881836,0
-0.6271973,0.91284186,-0.0793457,0
-0.51953125,1.1437988,0.012695313,0
-0.46118167,0.6479492,0.31347656,0
-0.29101563,0.99731445,0.30395508,0
-0.16064455,1.1083984,0.21972656,0
0.006835938,1.4748536,0.14257813,0
-0.15454102,0.8017578,0.5422363,0
-0.09741211,0.857666,0.3981934,0
-0.11547852,0.82861334,0.15136719,0
-0.03149414,1.2766113,-0.16308594,0
-0.040771484,0.93627936,0.22851563,0
0.068847656,1.0153809,0.20019533,0
0.051757813,1.0991211,0.18579102,0
-0.02246094,0.94677734,0.24047853,0
-0.17480469,0.9946289,-0.030029297,0
-0.16040039,0.9675293,0.017578125,0
-0.14746094,0.69531256,-0.012939453,0
-0.20507813,1.2302247,0.05737305,0
-0.20312501,1.0314941,0.1315918,0
-0.31762698,1.0031738,0.112548836,0
-0.2126465,0.95336914,-0.072021484,0
-0.25976563,0.7680664,-0.06933594,0
-0.40600586,0.8476563,0.033447266,0
-0.33935547,0.9250488,0.103271484,0
-0.37719727,0.88281256,0.15844728,0
-0.189209,1.0126953,-0.084716804,0
-0.33227542,1.1013184,-0.11767579,0
-0.28076172,1.0314941,-0.005371094,0
-0.2824707,0.9995117,-0.043945313,0
-0.36108398,0.9790039,-0.07128906,0
-0.6574707,0.9602051,-0.11791992,0
-0.5551758,0.9284668,-0.075683594,0
-0.27441406,1.1784668,-0.17382814,0
-0.33886722,0.88842773,-0.25561523,0
-0.4284668,1.6816406,-0.20336914,0
-0.6601563,1.0571289,0.20263672,0
-0.6442871,1.2021484,0.27954102,0
-0.49316406,1.1291504,0.3010254,0
-0.17211914,0.8078613,0.36499023,0
-0.13110352,0.95898443,0.19140626,0
0.5324707,0.64160156,0.19213869,0
0.9274903,0.38647464,0.5539551,0
0.9265137,0.8300782,0.5629883,0
0.76220703,0.018066406,0.43530273,0
0.21069336,0.41918945,0.6599121,0
0.5637207,-0.34985355,0.7248535,0
0.35278323,-0.51000977,0.8608399,0
0.4758301,0.763916,1.1274414,0
0.51416016,-0.29907227,0.673584,0
0.22973633,-0.4187012,0.1352539,0
0.12866211,0.4084473,0.20532228,0
0.7624512,0.92236334,-0.30078128,0
0.7294922,-0.189209,0.2758789,0
2.1437988,0.29174805,-0.3652344,0
1.8806154,-0.45336914,0.17382814,0
1.4792482,0.9716797,0.17333984,0
1.0471191,0.095947266,0.20751955,0
1.0471191,0.095947266,0.20751955,0
1.2270508,-0.1591797,0.04321289,0
0.7861329,-0.40942383,-0.29663086,0
0.97680664,0.012695313,0.1772461,0
0.7060547,-0.5192871,-0.36303714,0
1.0197754,-0.07543945,-0.048828125,0
0.8244629,-0.18701173,-0.26416016,0
0.9050293,-0.08251954,-0.45507813,0
0.9238282,-0.036132813,0.064697266,0
0.8613281,-0.29858398,-0.95336914,0
0.9667969,-0.13110352,-1.1958008,0
1.3447266,0.49804688,0.09033203,0
1.2890625,0.033447266,-0.63500977,0
1.3295898,-0.36547852,-0.7504883,0
1.2778322,-0.20898439,-0.50097656,0
0.9919434,-0.2849121,-0.95898443,0
1.0012207,-0.20898439,-0.95654297,0
1.0161133,-0.059814453,-0.88012695,0
0.8955078,-0.12207032,-0.67480475,0
1.0644531,0.15356445,-0.8815918,0
1.0644531,0.15356445,-0.8815918,0
1.2961427,-0.2783203,-1.3383789,0
1.0991211,-0.036621094,-0.9189453,0
1.0136719,-0.26391602,-0.8000489,0
0.8178711,-0.2861328,-0.49169922,0
0.6237793,-0.23779297,-0.36767578,0
0.4814453,-0.21020508,-0.2614746,0
0.29125977,-0.18139648,-0.07836914,0
0.07910156,-0.14624023,0.05859375,0
0.010742188,-0.09448242,-0.049560547,0
0.071777344,0.025390627,-0.19677734,0
0.01879883,0.19067384,-0.25,0
0.3317871,0.33764648,-0.16894531,0
0.48120117,-0.31542972,-0.27294922,0
0.48120117,-0.31542972,-0.27294922,0
0.36962894,-0.39086917,-0.3869629,0
0.8381348,0.3681641,-0.37915042,0
1.0266113,0.48950195,-0.37646484,0
1.1088867,0.048828125,-0.44628906,0
1.0534668,-0.019531252,-0.31811523,0
1.0534668,-0.019531252,-0.31811523,0
1.2995605,-0.034179688,-0.20263672,0
1.3500977,-0.28735352,0.06323242,0
1.3500977,-0.28735352,0.06323242,0
1.2971191,-0.23315431,0.052001953,0
1.2971191,-0.23315431,0.052001953,0
0.88964844,-0.031982422,-0.06665039,0
0.88964844,-0.031982422,-0.06665039,0
0.9379883,-0.10229493,0.28198242,0
0.8615723,-0.068603516,0.36987305,0
1.0302734,0.10375977,0.26708984,0
0.9670411,0.04492188,0.06542969,0
0.9746094,-0.000244141,-0.004394531,0
1.0041504,-0.003417969,0.013916016,0
0.9904786,-0.033203125,0.052246097,0
1.0227051,-0.0637207,0.021484375,0
0.8139649,-0.06762695,0.007324219,0
0.7402344,-0.10571289,-0.022705078,0
0.7573242,-0.1027832,-0.07080078,0
0.7641602,-0.01879883,-0.0703125,1
0.723877,-0.10644531,-0.001953125,1
0.7006836,-0.3688965,-0.11230469,1
0.66845703,-0.18408205,-0.14257813,1
0.45141602,-0.27856445,-0.011962892,1
0.42407227,-0.26049805,-0.08398438,1
0.3754883,0.025878906,-0.0456543,1
0.50756836,-0.2705078,-0.012939453,1
0.46948242,-0.23974611,-0.21484376,1
0.32763672,-0.16259766,-0.01586914,1
0.17749025,-0.3212891,0.17480469,1
0.39916992,0.8132325,-0.22485352,1
2.3168945,1.0734863,-0.64184576,1
3.5185547,-0.8522949,0.58325195,1
2.9890137,-0.51416016,1.0681152,1
2.2841797,0.54956055,0.19702148,1
0.65771484,0.73291016,1.838623,1
0.65771484,0.73291016,1.838623,1
0.42016605,0.004882813,1.6140138,1
-0.007080079,0.3051758,1.0275879,1
0.21826172,0.7729493,0.8720703,1
0.7304688,0.33593753,0.6765137,1
1.0771484,1.0742188,0.123046875,1
0.23364258,1.0280762,0.63623047,1
-0.21679688,0.6899414,0.7062989,1
-0.57958984,1.1315918,0.116210945,0
-0.4958496,0.8745117,0.20312501,0
-1.1062012,-0.010742188,0.1586914,0
-0.9509278,0.111328125,0.088134766,0
-0.703125,0.5522461,-0.03125,0
-0.65625,0.22338867,0.04492188,0
-0.52856445,0.26000977,0.19287111,0
-0.24169922,0.5349121,0.30590823,0
0.3786621,2.3952637,2.161621,0
1.0725098,0.17651367,2.5478516,0
0.26416016,1.9306641,0.84619147,0
0.09375,0.28442383,0.24316406,0
0.25463867,0.35473633,0.052246097,0
0.35180664,1.1564941,0.6970215,0
0.13598633,0.3317871,1.1279297,0
0.13647461,0.16308594,1.0847168,0
-0.06201172,0.48828128,0.7492676,0
-0.14868164,0.7473145,0.7678223,0
-0.17480469,0.49902344,0.8811035,0
-0.1586914,0.5061035,0.96435547,0
-0.21728516,0.40917972,0.9375,0
-0.17919922,0.25073242,0.8330079,0
-0.049804688,0.2956543,0.6669922,0
0.27954102,0.8979492,0.72900397,0
0.26513672,0.82373047,0.55322266,0
0.06738281,0.61572266,0.54003906,0
0.33740237,1.0046387,0.5180664,0
0.33740237,1.0046387,0.5180664,0
0.24389648,1.0007324,-0.03881836,0
0.16650392,1.0803223,0.040039063,0
-0.111572266,0.97387695,0.26049805,0
-0.084716804,1.0026855,0.2229004,0
-0.11669922,1.0471191,0.1381836,0
-0.3400879,1.0952148,0.08618165,0
-0.30590823,1.0019531,0.084472656,0
-0.44018555,0.7336426,0.26586914,0
-0.34716797,0.80126953,0.010009766,0
-0.50341797,0.92700195,0.064697266,0
-0.51000977,1.0187988,0.15356445,0
-0.14624023,1.4255371,0.39648438,0
-0.40039065,1.3168945,0.38476563,0
-0.46899414,1.2368165,0.4589844,0
-0.7805176,1.4777833,0.4626465,0
-0.7739258,0.5371094,0.7304688,0
-0.09863282,0.8310547,0.7036133,0
-0.11425781,0.5136719,0.7302246,0
0.07592774,0.40820313,0.64917,0
0.46142578,0.7004395,0.3708496,0
0.5036621,0.6125489,0.3671875,0
0.4987793,0.26245117,0.4758301,0
0.6669922,0.51049805,0.390625,0
0.7644043,0.6066895,0.4873047,0
0.62133795,0.005371094,0.6198731,0
0.67480475,0.4384766,0.4104004,0
0.6455079,0.3615723,0.43896484,0
0.5209961,0.18603516,0.4626465,0
0.4790039,0.5793457,0.6357422,0
0.31689456,0.5751953,0.24389648,0
0.30493164,0.38256836,0.6503906,0
0.52563477,0.16552734,0.18408205,0
1.1606445,-0.14697266,-0.24316406,0
1.5671388,0.14990234,-0.1657715,0
1.1582031,0.52001953,-0.064208984,0
1.1791992,0.49243164,-0.23632813,0
1.1313477,0.1171875,0.11547852,0
1.1064453,0.08520508,0.104492195,0
0.9489746,-0.5085449,-0.20141602,0
1.0090332,0.06103516,-0.2294922,0
0.9082031,-0.62426764,-0.36230472,0
0.9020996,-0.09741211,-0.0925293,0
0.90527344,-0.17675783,-0.24316406,0
0.8549805,0.27416992,-0.63500977,0
1.1040039,-0.060302738,-0.54663086,0
1.3906251,-0.5644531,-0.5661621,0
1.4704591,-0.22680664,-0.4111328,0
1.2968751,-0.25048828,-0.59228516,0
1.1567383,-0.17285156,-0.6867676,0
0.9160156,-0.25561523,-0.6508789,0
0.9394531,-0.27124023,-0.48339844,0
1.2805176,-0.6098633,-0.4909668,0
1.1203613,-0.4345703,-0.58740234,0
1.0703125,-0.6228028,-1.1274414,0
1.2441407,0.05493164,-1.1264648,0
1.0808105,-0.5539551,-0.8337403,0
0.9555664,-0.66064453,-0.95214844,0
0.93066406,-0.49023438,-1.0327148,0
1.0483398,-0.23950195,-0.69897467,0
0.6965332,-0.13696289,-0.41479492,0
0.31347656,-0.07104492,-0.31323245,0
-0.025390627,0.119384766,-0.23999023,0
-0.030273438,0.265625,-0.27026367,0
0.025146484,0.20214844,-0.20776367,0
0.07080078,0.3178711,-0.14355469,0
0.33740237,-0.21020508,0.042724613,0
0.29833984,0.0637207,0.15649414,0
0.5593262,-0.5932617,0.05053711,0
0.8439942,0.11450195,-0.21972656,0
0.8439942,0.11450195,-0.21972656,0
0.8439942,0.11450195,-0.21972656,0
1.5217286,-0.17749025,-0.016845703,0
1.5112305,-0.27319336,0.23388673,0
1.5112305,-0.27319336,0.23388673,0
1.5112305,-0.27319336,0.23388673,0
1.3720703,0.04931641,-0.5852051,0
1.3720703,0.04931641,-0.5852051,0
1.7121583,0.5734863,-0.46142578,0
1.3864746,0.000976563,-0.19628906,0
0.8796387,-0.82543945,0.020751953,0
0.96435547,-0.607666,0.06567383,0
0.9545899,0.12231445,0.20703125,0
0.9545899,0.12231445,0.20703125,0
0.9685059,-0.09448242,0.15283203,0
0.9685059,-0.09448242,0.15283203,0
0.9519043,0.019042969,0.001953125,0
0.97387695,-0.00390625,0.059326172,0
0.9345703,-0.059814453,0.058837894,0
0.9440918,-0.008056641,0.071777344,0
0.9951172,0.023925783,0.085449226,0
0.9033204,-0.05371094,0.054443363,0
0.8808594,-0.013671875,0.059326172,0
0.87231445,-0.055175785,0.06542969,0
0.78247076,-0.03564453,0.052001953,0
0.75512695,0.00390625,0.056152344,0
0.7744141,-0.060546875,0.076171875,0
0.7631836,-0.016601563,0.07299805,1
0.6933594,-0.047607422,-0.029296875,1
0.79467773,-0.14233398,-0.021484375,1
0.96728516,-0.10961915,-0.024414063,1
0.9394531,-0.14379883,-0.081054695,1
0.7392579,-0.15795898,-0.18066406,1
0.6791993,-0.14672852,-0.06616211,1
0.44848633,-0.013671875,-0.034179688,1
0.4453125,0.13256836,-0.09887695,1
0.44018555,-0.34057617,0.060058594,1
0.5280762,-0.06762695,-0.076171875,1
0.47753906,-0.32006836,-0.1213379,1
0.5061035,1.2021484,0.79296875,1
0.55078125,2.4855957,3.4709473,1
2.4768066,2.8115234,1.5947266,1
1.810791,1.1960449,2.4223635,1
0.6931153,0.47729495,1.9533691,1
-0.13793945,0.5202637,1.434082,1
-0.439209,1.2270508,1.5539552,1
1.3063966,2.076416,1.5090332,1
0.19995117,0.45996094,0.016113281,1
-0.3579102,0.092285156,0.17797852,1
-0.44628906,0.83520514,-0.10644531,1
-0.3173828,0.9680176,0.4626465,1
-0.5629883,0.04321289,0.5258789,1
-0.70751953,1.1289063,-0.16918945,0
-0.6096192,-0.19433595,0.11425781,0
-0.62475586,-0.29882813,0.19116211,0
-0.5402832,0.084228516,0.23388673,0
-0.34375,0.5151367,0.005615235,0
-0.0625,0.529541,0.3166504,0
0.044189457,0.8542481,0.34423828,0
0.1652832,1.1499023,0.9536133,0
0.57910156,1.0634766,1.7871094,0
-0.1977539,1.2739258,0.59277344,0
-0.23413086,0.095458984,0.19653322,0
0.029785158,0.93920904,1.0219727,0
0.040283203,0.9519043,1.0026855,0
-0.030029297,0.6801758,0.88256836,0
-0.085449226,0.49340823,0.8503418,0
-0.07543945,0.529541,0.8713379,0
0.03149414,0.17333984,0.763916,0
0.34155273,1.0307617,0.5649414,0
0.19995117,0.9211426,0.50219727,0
-0.068603516,0.748291,0.29785156,0
0.12036133,0.944336,0.2607422,0
0.15991212,1.0351563,0.23632813,0
0.025390627,1.010498,0.2734375,0
0.026123049,0.99926764,0.024414063,0
-0.051513676,1.0856934,0.028808594,0
-0.13867188,1.0722656,0.2060547,0
-0.26611328,0.878418,0.2626953,0
-0.34716797,0.7875977,0.39038086,0
-0.69555664,0.70288086,0.47729495,0
-0.49414065,0.9370118,0.40356445,0
-0.44458008,1.1513672,0.21240234,0
-0.12866211,1.4091797,0.5888672,0
0.095214844,1.095459,0.6191407,0
-0.4716797,1.3967285,0.6027832,0
-0.7844238,0.9511719,0.60742193,0
-0.6166992,0.46533203,0.3117676,0
-0.5563965,0.47729495,0.25317383,0
-0.31860352,0.5505371,0.57055664,0
-0.040039063,0.6159668,0.45629883,0
0.34521484,0.37158203,0.4958496,0
0.9885254,0.8146973,0.5358887,0
1.1481934,0.19165039,0.4020996,0
1.0163574,0.07861328,0.16455078,0
0.7038574,-0.05737305,0.28344727,0
0.5932617,0.43408206,0.20874023,0
0.41479492,0.6035156,0.57470703,0
0.5817871,0.03466797,0.4140625,0
1.3669434,0.72265625,0.21948242,0
1.7770996,-0.25439453,-0.44091797,0
1.5871582,-0.1303711,-0.24121095,0
1.1865234,-0.38232422,0.20776367,0
0.8701172,0.12890625,-0.10229493,0
1.0563965,-0.16186523,-0.20312501,0
1.0126953,-0.18139648,0.016357422,0
0.8852539,-0.3239746,0.015136719,0
0.88623047,-0.38061526,-0.13623047,0
0.9621582,-0.22241211,-0.1652832,0
0.7272949,-0.5673828,-0.107910156,0
1.0661621,0.015136719,0.099853516,0
0.9272461,-0.4421387,-0.060302738,0
0.9272461,-0.4421387,-0.060302738,0
1.2438965,-0.3269043,-0.064453125,0
1.7165529,-0.9904786,-0.19604492,0
1.6250001,-0.763916,-0.04321289,0
0.9714356,0.31860352,0.042236328,0
0.6398926,1.2580568,0.10180664,0
0.8271485,1.2265626,-0.047119144,0
0.5061035,0.46020508,0.47314453,0
0.21386719,0.5053711,0.98876953,0
0.06616211,0.027587892,0.5251465,0
-0.13671875,-0.38793948,0.92871094,0
0.3552246,-0.10546875,0.7326661,0
0.6743164,0.13330078,-1.5161133,0
2.8229983,-1.4702148,-0.4650879,0
2.1428223,-0.13085938,0.2290039,0
0.6281738,0.4116211,0.31811523,0
0.6528321,-0.12158203,0.19287111,0
0.88305664,-0.1381836,0.14672852,0
1.1813965,-0.080078125,-0.49902344,0
1.5197754,0.006103516,-0.878418,0
1.6350098,-0.18652344,-0.35839844,0
1.5368652,-0.3044434,-0.008544922,0
1.8034668,-0.756836,-0.05053711,0
1.9821777,-0.8850098,-0.378418,0
1.9519043,-0.9577637,-0.43261722,0
1.4599609,-0.94750977,-0.31909183,0
1.3356935,-0.673584,0.37719727,0
1.3576661,-0.8044434,-0.08837891,0
1.8312988,0.6516113,-0.5678711,0
1.8137207,0.5617676,-0.52197266,0
1.3283693,0.11694337,-0.11694337,0
1.1083984,0.080566406,-0.28808594,0
0.9379883,0.43164063,-0.27563477,0
0.7709961,0.28271484,-0.18627931,0
0.670166,0.37158203,-0.15649414,0
0.670166,0.37158203,-0.15649414,0
0.6472168,0.3942871,-0.07812501,0
0.6472168,0.3942871,-0.07812501,0
0.6472168,0.3942871,-0.07812501,0
0.6472168,0.3942871,-0.07812501,0
0.59399414,0.08325196,0.017089844,0
0.59399414,0.08325196,0.017089844,0
0.5102539,0.14404297,0.09814453,0
0.5102539,0.14404297,0.09814453,0
0.5102539,0.14404297,0.09814453,0
0.38061526,0.1555176,0.08837891,0
-0.45971683,0.61474615,0.24316406,0
-0.5583496,0.31030276,0.28442383,0
-0.5583496,0.31030276,0.28442383,0
-0.5583496,0.31030276,0.28442383,0
-0.4890137,0.43408206,0.24194337,0
0.26904297,0.39135742,-0.07324219,0
0.48339844,0.6948242,-0.24291992,0
0.48339844,0.6948242,-0.24291992,0
0.44458008,0.8457031,-0.23242189,0
0.5053711,1.0490723,-0.1640625,0
0.5053711,1.0490723,-0.1640625,0
1.3862306,1.2492677,0.13916016,0
2.097412,0.7702637,0.091796875,0
1.7312013,1.6518555,-0.06225586,0
0.897461,1.2380371,0.32177734,0
0.897461,1.2380371,0.32177734,0
1.1738281,0.38671875,-0.022949219,0
0.96899414,-0.3552246,0.5385742,0
0.9670411,-0.37255862,0.35571292,0
1.2590332,0.25561523,-0.002929688,0
1.1464844,0.4243164,0.029052736,0
0.8310547,-0.01123047,-0.13867188,0
0.6677246,-0.20629883,0.033447266,0
0.99902344,0.02685547,0.41088867,0
1.0556641,0.22729494,0.20117188,0
0.9682617,0.22973633,0.111328125,0
0.9213867,0.118896484,0.06933594,0
0.9316406,0.08935547,0.10058594,0
0.9150391,0.096191406,0.10961915,0
0.9387207,0.016113281,0.14233398,0
0.93237305,-0.07763672,0.14013672,0
0.9477539,-0.088134766,0.123046875,0
0.82495123,-0.17382814,0.06274414,0
0.82495123,-0.17382814,0.06274414,0
0.8007813,-0.23046875,0.08032227,0
0.8205567,-0.07592774,0.07373047,0
1.0373535,-0.4621582,-0.11816406,0
1.0373535,-0.4621582,-0.11816406,0
0.9770508,-0.39306644,0.007324219,0
0.8635254,-0.41601563,-0.055419922,0
0.9516602,0.010498048,-0.029296875,0
0.6555176,-0.05859375,-0.1586914,1
0.4992676,-0.03515625,-0.118896484,1
0.37890625,-0.34155273,0.03515625,1
0.3779297,-0.2492676,-0.016357422,1
0.32617188,0.001220703,-0.22143556,1
0.30371097,0.03491211,-0.16186523,1
0.39013675,-0.10180664,-0.23730469,1
0.32958984,-0.4655762,-0.068603516,1
0.3754883,-0.09472656,-0.14208984,1
0.64208984,0.7033692,0.05126953,1
1.0266113,0.21386719,0.5617676,1
1.4924318,1.5380859,2.911377,1
2.3029785,0.07348633,0.96655273,1
3.977539,0.97314453,2.0993652,1
0.24731445,0.46337894,1.052002,1
-0.9379883,0.88623047,1.3359375,1
0.06542969,0.4216309,1.5034181,1
0.5969238,0.61499023,1.0812988,1
0.3642578,0.2006836,0.63842773,1
0.033691406,0.5385742,0.27807617,1
-0.42968753,0.58813477,0.50805664,1
-0.53393555,0.3203125,0.6479492,1
-0.53393555,0.3203125,0.6479492,1
-0.45141602,0.22827148,0.46020508,1
-0.16796876,0.96923834,0.15820313,1
-0.16796876,0.96923834,0.15820313,0
-0.059814453,1.0708008,-0.023193361,0
-0.072265625,0.59472656,-0.04736328,0
-0.10058594,0.98339844,-0.2043457,0
-0.17871094,0.94311523,-0.17138672,0
-0.19360353,1.0952148,-0.13378906,0
-0.23632813,1.0715332,-0.35083008,0
-0.24121095,1.1652832,-0.40234375,0
-0.14672852,1.265625,-0.4384766,0
-0.16601563,1.0576172,-0.4284668,0
-0.032226563,0.5097656,0.8625488,0
-0.11328126,0.9370118,0.17456056,0
-0.03930664,1.5439453,-0.65527344,0
-0.36767578,1.1164551,-0.3642578,0
-0.3203125,0.40966797,-0.40527344,0
-0.23583984,1.0961914,-0.38745117,0
-0.3754883,1.1989746,-0.43896484,0
-0.19238281,0.35302734,-0.18237305,0
-0.3051758,0.68481445,-0.07348633,0
-0.19995117,0.6706543,-0.108154304,0
-0.3618164,0.9169922,0.002929688,0
-0.4150391,0.9941407,-0.0625,0
-0.16210939,1.1779785,-0.32714847,0
-0.25268555,1.1862793,-0.15209961,0
-0.28686523,1.1213379,-0.12084961,0
-0.2902832,1.1767578,-0.3371582,0
-0.2734375,1.2907715,-0.5209961,0
-0.24609375,1.3881836,-0.3178711,0
-0.2446289,1.2851564,-0.1591797,0
-0.44653323,1.4274902,-0.13867188,0
-0.6469727,1.2370605,0.43823242,0
-0.9318848,0.4716797,0.65478516,0
-0.7770996,0.41992188,0.67553717,0
-0.4741211,0.9416504,0.12084961,0
-0.42041016,0.9379883,0.040039063,0
0.38574222,0.3581543,-0.000244141,0
0.5632324,0.6293946,0.17675783,0
0.5649414,0.3981934,0.2956543,0
0.501709,0.2722168,0.39599612,0
0.9416504,0.77514654,0.9255371,0
0.75927734,0.4758301,-0.11743164,0
0.7106934,0.37670898,-0.05004883,0
0.78222656,0.5419922,0.53686523,0
0.34814453,0.5515137,0.49340823,0
0.2944336,0.32934573,0.4111328,0
0.09008789,1.0791016,-0.017089844,0
1.2541504,-0.35473633,0.26635742,0
1.5144044,-0.65429693,-0.29052734,0
1.6499025,0.1616211,-0.15698244,0
1.1662598,0.0234375,-0.3681641,0
1.414795,0.10498047,0.025146484,0
1.414795,0.10498047,0.025146484,0
1.1259766,-0.032470703,-0.20288086,0
1.161377,0.053955078,0.13891602,0
1.0639648,-0.3747559,-0.083740234,0
0.9621582,-0.57714844,-0.10424805,0
0.7634278,-0.31054688,0.119873054,0
0.7741699,0.09887695,-0.005371094,0
0.876709,0.21191408,-0.17529298,0
0.89233404,0.39135742,-0.14111328,0
1.55542,-0.05859375,0.15942383,0
1.696045,-0.23828126,0.111572266,0
1.5603027,-0.18896484,0.06616211,0
1.5998535,-0.25805664,0.1657715,0
1.2802734,0.6040039,-0.5131836,0
0.6169434,1.2434083,0.048828125,0
0.16796876,0.9760742,1.1118164,0
0.16796876,0.9760742,1.1118164,0
0.29345703,-0.060302738,0.6274414,0
0.29345703,-0.060302738,0.6274414,0
-0.64282227,0.33007815,1.2561035,0
-0.64282227,0.33007815,1.2561035,0
0.002685547,0.10620117,0.93530273,0
0.002685547,0.10620117,0.93530273,0
-0.020019531,-0.2258301,0.18408205,0
-0.020019531,-0.2258301,0.18408205,0
0.28442383,-0.2668457,-0.53027344,0
0.28442383,-0.2668457,-0.53027344,0
2.7834475,0.5493164,0.10668946,0
-0.11791992,0.5979004,-0.14770508,0
-0.11791992,0.5979004,-0.14770508,0
-0.11791992,0.5979004,-0.14770508,0
0.46777347,0.21289063,-0.10253906,0
0.60131836,-0.24829102,-0.28344727,0
1.4172363,-0.15063477,-0.57299805,0
1.6923829,-0.16455078,-0.24584961,0
1.5395508,-0.36376956,-0.6330567,0
1.2404786,-0.72558594,-0.8613281,0
1.0620117,-0.7038574,-0.7133789,0
1.1904297,-0.32470703,-0.8269043,0
0.8083496,-0.6723633,-0.39746097,0
0.6911621,-0.46679688,-0.31958008,0
0.5217285,-0.017822266,-0.28271484,0
0.19335938,-0.13867188,-0.1706543,0
0.10156251,-0.13891602,-0.18627931,0
0.17919922,-0.006347657,-0.15844728,0
0.1303711,-0.02246094,-0.17993164,0
0.33251953,0.015380859,-0.23535158,0
0.5698242,0.1538086,-0.22827148,0
0.7717285,0.19384766,-0.2126465,0
0.8664551,0.12890625,-0.11206055,0
0.9279785,0.48828128,-0.20214844,0
0.86694336,0.28222656,-0.09692383,0
0.79003906,-0.35766602,-0.2241211,0
0.63525397,-0.1958008,-0.40966797,0
1.1782227,0.34155273,-0.5769043,0
1.0202637,0.19238281,-0.3486328,0
0.92944336,0.3618164,-0.3779297,0
0.37329105,-0.6621094,-0.171875,0
1.0161133,0.21948242,0.23022462,0
1.2241211,-0.017089844,0.3046875,0
1.7971193,0.40698245,-0.39794922,0
1.3798828,0.54296875,-0.68505865,0
0.50683594,-0.33569336,0.3466797,0
0.810791,0.34960938,0.13134766,0
0.7680664,0.14404297,0.116210945,0
0.87915045,0.051513676,0.12963867,0
1.0683594,0.0925293,0.007568359,0
1.0683594,0.0925293,0.007568359,0
0.9716797,0.011962892,0.04663086,0
0.94213873,-0.03930664,0.008544922,0
0.8991699,0.08764649,-0.02734375,0
0.8942871,0.008056641,-0.10473633,0
0.86279297,0.004394531,-0.1213379,0
0.8300782,0.13598633,-0.07128906,0
0.9003907,-0.052246097,-0.097167976,0
0.77563477,-0.006591797,-0.09570313,0
0.76293945,0.04248047,-0.044189457,1
0.7373047,0.008544922,-0.052490234,1
0.5810547,0.001953125,-0.092285156,1
0.6604004,-0.024414063,-0.11206055,1
0.5058594,-0.08691407,-0.16113281,1
0.6311035,-0.04492188,-0.14746094,1
0.54125977,-0.27856445,-0.27392578,1
0.63427734,-0.07592774,-0.34960938,1
0.66455084,-0.26367188,-0.37719727,1
0.49072266,-0.23339844,-0.4084473,1
0.50268555,-0.69824225,-0.25830078,1
0.23266602,0.26904297,-0.13110352,1
0.73583984,1.0339355,2.6962893,1
3.1865234,2.8125,2.0771484,1
1.5593262,3.0322266,1.5571289,1
1.1157227,0.33642578,2.378662,1
0.5305176,-0.19750977,2.2312012,1
0.4169922,0.3081055,1.5839845,1
1.1357422,0.43139648,1.052002,1
1.1940918,0.12963867,0.22827148,1
0.1237793,0.77246094,0.3605957,1
-0.6528321,0.97753906,-0.18115236,1
-0.46313477,1.2419435,-0.122558594,1
-0.7641602,0.31542972,0.41015625,1
-1.0429688,0.11669922,0.37963867,1
-0.79199225,0.32910156,0.48974612,0
-0.6911621,0.33764648,0.35644534,0
-0.6911621,0.33764648,0.35644534,0
0.1586914,1.3947754,0.9177246,0
0.3581543,1.8569336,1.3496095,0
0.5834961,0.93969727,1.052002,0
0.024902344,0.39086917,0.5395508,0
0.024902344,0.39086917,0.5395508,0
0.014160157,0.46948242,0.63159186,0
-0.043945313,0.9423828,0.9182129,0
-0.15356445,0.6804199,0.45825198,0
-0.15356445,0.6804199,0.45825198,0
0.20825197,0.8374024,0.5690918,0
0.2524414,0.20874023,1.0446777,0
0.27661133,-0.15893555,0.8120117,0
0.26342773,0.69165045,0.6489258,0
-0.018554688,0.78222656,0.61743164,0
0.10107422,1.0759277,0.6027832,0
0.041503906,0.5559082,0.6894532,0
0.07958985,0.7607422,0.62890625,0
0.106933594,0.8798829,0.40234375,0
0.08666992,0.883545,0.40991214,0
0.092773445,1.001709,0.31420898,0
0.040771484,0.89208984,0.35717776,0
0.124267586,1.0163574,0.234375,0
-0.077392586,1.0766602,0.13671875,0
-0.21069336,1.0026855,0.33422852,0
-0.16040039,0.9206543,0.4685059,0
-0.14086914,0.911377,0.18847658,0
-0.14086914,0.911377,0.18847658,0
-0.31396487,0.6967774,0.25512695,0
-0.28808594,1.046875,0.1171875,0
-0.30273438,1.2124023,-0.030273438,0
-0.20971681,1.0524902,-0.045410156,0
-0.16040039,0.8908692,0.27807617,0
-0.040039063,1.2126466,0.25341797,0
0.013916016,1.1977539,0.49340823,0
-0.053222656,0.96728516,0.48266602,0
0.9797363,0.18945313,0.055664063,0
0.99438477,0.19677734,0.06958008,0
0.9545899,0.19750977,0.1105957,0
1.0117188,0.18530273,0.12915039,0
1.0117188,0.18530273,0.12915039,0
1.0334473,0.17114258,0.15966797,0
0.850586,0.20776367,0.19262695,0
0.82299805,0.21142578,0.1953125,0
0.878418,0.20800781,0.18725586,0
0.9277344,0.19482422,0.1821289,0
0.87646484,0.1826172,0.18530273,0
0.8798829,0.18481447,0.17089845,0
0.89697266,0.18969727,0.16992188,0
0.9682617,0.19042969,0.17504883,0
0.96997076,0.18383789,0.18823242,0
0.93725586,0.18652344,0.18286133,0
0.9177246,0.17993164,0.18359375,0
0.92602545,0.12695313,0.17919922,0
0.92602545,0.12695313,0.17919922,0
0.8979492,0.12280274,0.16894531,0
0.8972168,0.09838867,0.15649414,0
0.9199219,0.06958008,0.14404297,0
0.9348145,0.06591797,0.14379883,0
0.92041016,0.063964844,0.16113281,0
0.95581055,0.05004883,0.1555176,0
0.8486328,0.029296875,0.14868164,0
0.8110352,-0.039794926,0.108886726,0
0.7978516,-0.05029297,0.106933594,0
0.67187506,-0.072509766,0.10156251,0
0.68310547,-0.11206055,0.06665039,0
0.6516113,-0.1315918,0.001708984,0
0.5769043,-0.2290039,-0.009033203,1
0.60546875,-0.32348636,0.000244141,1
0.54663086,-0.20288086,-0.083496094,1
0.5270996,-0.23803711,-0.10913086,1
0.5551758,-0.2836914,-0.033691406,1
0.40429688,-0.11230469,-0.099853516,1
0.13330078,-0.053466797,-0.021484375,1
0.08129883,0.12475586,-0.0234375,1
0.1784668,0.2849121,0.19311523,1
-0.028076172,0.06958008,0.17480469,1
0.32104492,-0.4355469,-1.0407715,1
2.086914,1.5854493,2.7670898,1
2.086914,1.5854493,2.7670898,1
4.121582,2.3171387,1.5253907,1
1.3913575,0.904541,2.2209473,1
1.1135254,0.5864258,1.909668,1
0.39379886,0.21118166,1.3464355,1
0.39208984,0.48291016,0.57666016,1
1.0239258,0.7700196,0.3015137,1
1.0239258,0.7700196,0.3015137,1
0.171875,0.2763672,0.4489746,1
0.171875,0.2763672,0.4489746,1
0.171875,0.2763672,0.4489746,1
-0.004638672,0.7805176,0.20166017,1
-0.08642578,0.4243164,0.43310547,1
-0.060546875,0.57250977,0.44433597,0
-0.079833984,0.9140625,0.3178711,0
-0.12402344,1.119873,0.18798828,0
0.001464844,0.8937989,0.064941406,0
0.08642578,1.2160645,0.06518555,0
0.13647461,1.1975098,0.13916016,0
0.115234375,1.0610352,0.19238281,0
0.115234375,1.0610352,0.19238281,0
0.07446289,0.8964844,0.26391602,0
0.032226563,0.87231445,0.29907227,0
0.032226563,0.87231445,0.29907227,0
0.35058597,0.9133301,0.3942871,0
0.3347168,0.883545,0.4187012,0
0.2055664,0.8383789,0.4177246,0
0.15161133,0.90356445,0.37353516,0
0.11181641,0.91259766,0.35913086,0
0.09887695,0.91015625,0.36914063,0
0.111572266,0.9150391,0.3701172,0
0.1352539,0.93359375,0.36694336,0
0.12817383,0.89624023,0.38793948,0
0.15527344,0.9291992,0.35180664,0
0.20263672,0.95288086,0.32275394,0
0.2631836,0.95703125,0.3046875,0
0.19702148,0.9345703,0.36376956,0
0.16796876,0.8935547,0.43627933,0
0.08129883,0.85546875,0.43676758,0
0.059570316,0.89624023,0.37719727,0
0.02246094,0.9067383,0.4223633,0
0.007568359,0.81274414,0.5517578,0
0.002929688,0.8300782,0.53930664,0
0.029296875,0.8081055,0.54589844,0
0.12963867,0.81250006,0.6435547,0
0.07812501,0.72167975,0.6464844,0
-0.11376953,0.7363282,0.6101074,0
-0.23632813,0.7426758,0.78906256,0
-0.3647461,0.7260743,0.7575684,0
-0.28637695,0.7070313,0.7373047,0
-0.10522462,1.234375,0.7297364,0
-0.20874023,0.8984375,0.70751953,0
0.12988281,0.8244629,0.7145996,0
0.16845703,0.784668,0.7268067,0
0.25390625,0.6337891,0.5354004,0
0.4440918,0.41186523,0.43603516,0
0.6159668,0.41357425,0.26220703,0
0.67285156,0.52490234,0.1657715,0
0.7143555,0.11791992,-0.07885743,0
1.201416,-0.57177734,0.29638672,0
0.9250488,-0.12084961,0.6130371,0
0.3334961,0.56591797,0.29223633,0
1.2783203,-0.11840821,0.13891602,0
1.2380371,-0.13110352,0.19140626,0
1.3159181,-0.09936524,0.21557619,0
1.1472168,-0.083496094,0.26171875,0
1.2819824,-0.03955078,0.26538086,0
1.2434083,-0.18188478,0.1958008,0
0.91259766,-0.1760254,0.13696289,0
0.8747559,-0.36987305,0.009521484,0
0.85302734,-0.27270508,0.002441407,0
0.96606445,-0.33911133,0.018310547,0
0.84643555,-0.47290042,-0.07324219,0
1.0432129,-0.49487308,-0.1459961,0
0.8911133,-0.4284668,-0.060791016,0
0.8569336,-0.53393555,0.026611328,0
0.8542481,-0.5415039,-0.27734375,0
1.0231934,-0.54418945,-0.2229004,0
1.0231934,-0.54418945,-0.2229004,0
0.9111328,-0.47705078,-0.36962894,0
0.9111328,-0.47705078,-0.36962894,0
0.9108887,-0.71484375,-0.31640625,0
0.9108887,-0.71484375,-0.31640625,0
0.9311524,-0.6442871,-0.31323245,0
0.8847656,-0.5227051,-0.3513184,0
0.84545904,-0.34814453,-0.38110352,0
0.7687988,-0.717041,-0.2944336,0
0.7258301,-0.59375,-0.23852539,0
0.7258301,-0.59375,-0.23852539,0
0.7258301,-0.59375,-0.23852539,0
0.7258301,-0.59375,-0.23852539,0
0.5805664,-0.39990234,-0.22387695,0
0.59594727,-0.63256836,-0.08325196,0
0.59594727,-0.63256836,-0.08325196,0
0.6660157,-0.49536133,-0.25268555,0
0.52612305,-1.2695313,-0.15283203,0
0.86596686,-0.5341797,-0.15283203,0
1.1611328,-0.7026368,-0.3447266,0
0.9160156,-0.58496094,-0.12890625,0
0.9160156,-0.58496094,-0.12890625,0
0.8413086,-0.5834961,-0.12084961,0
0.67163086,-0.5058594,-0.05053711,0
0.65136725,-0.25830078,-0.03149414,0
0.7033692,-0.17504883,-0.0234375,0
0.70214844,-0.13867188,-0.03759766,0
0.7004395,-0.118896484,-0.024658205,0
0.7158204,0.023925783,0.016113281,0
0.6972656,0.033203125,0.01171875,0
0.689209,0.014648438,-0.007568359,0
0.60791016,0.03857422,-0.001464844,0
0.53808594,0.068115234,0.001464844,0
0.5344238,0.071777344,0.007080079,0
0.560791,0.072265625,0.013916016,0
1.0515137,0.007568359,0.004882813,0
0.9885254,0.06103516,0.047851566,0
0.9885254,0.06103516,0.047851566,0
0.9411621,0.09375,0.09008789,0
0.9199219,0.08300781,0.12158203,0
0.9199219,0.08300781,0.12158203,0
0.954834,0.051757813,0.10131836,0
0.9555664,0.03466797,0.12011719,0
0.9555664,0.03466797,0.12011719,0
0.9611817,0.05102539,0.13842773,0
0.9611817,0.05102539,0.13842773,0
0.9787598,0.0703125,0.13891602,0
0.9787598,0.0703125,0.13891602,0
0.92041016,0.08081055,0.17285156,0
0.92041016,0.08081055,0.17285156,0
0.92041016,0.08081055,0.17285156,0
0.92041016,0.08081055,0.17285156,0
0.92041016,0.08081055,0.17285156,0
0.92041016,0.08081055,0.17285156,0
0.93627936,0.07666016,0.18164063,0
0.88940436,0.05029297,0.1430664,0
0.97680664,0.10302735,0.11669922,0
1.0029297,0.08032227,0.1237793,0
1.0751953,0.08227539,0.087402344,0
1.0002441,0.110839844,0.07592774,0
0.8640137,0.0871582,0.07006836,0
0.86987305,0.09887695,0.051513676,0
0.9453125,0.09497071,0.057128906,0
0.9453125,0.09497071,0.057128906,0
0.9453125,0.09497071,0.057128906,0
0.9453125,0.09497071,0.057128906,0
0.9453125,0.09497071,0.057128906,0
1.0827637,0.048095703,0.027587892,0
0.90991217,0.07446289,0.048095703,0
0.94262695,0.071777344,0.053222656,0
0.9694824,0.048828125,0.053466797,0
0.9638672,0.045166016,0.048095703,0
0.9516602,0.043457035,0.06201172,0
0.9267579,0.040039063,0.072509766,0
0.8874512,0.049560547,0.07666016,0
0.8803711,0.016113281,0.08764649,0
0.8881836,-0.008056641,0.12451172,0
0.8981934,-0.14355469,0.11669922,0
0.98339844,-0.22265625,0.10131836,0
0.9328613,-0.21630861,0.0925293,0
0.9797363,-0.22729494,0.068359375,0
0.9108887,-0.23681642,0.077392586,0
0.70751953,-0.21948242,0.07763672,0
0.67089844,-0.19921875,0.076171875,0
0.9033204,-0.16796876,0.002929688,0
0.7868653,-0.12036133,-0.040771484,1
0.6230469,-0.115234375,-0.05029297,1
0.6569824,-0.09887695,-0.053955078,1
0.6572266,-0.039794926,-0.042236328,1
0.546875,-0.007568359,-0.10205078,1
0.62109375,-0.09106445,0.091552734,1
0.5710449,-0.03955078,0.008544922,1
0.52441406,-0.29882813,0.22827148,1
0.47485352,-0.18847658,0.22924805,1
0.29663086,-0.07763672,0.07666016,1
0.3447266,-0.5,0.1484375,1
-0.04736328,-0.57055664,-0.9948731,1
0.6459961,1.7692872,0.40405276,1
4.481201,0.87060547,2.0263672,1
3.6965332,-0.11303711,0.7944336,1
0.9711914,1.557373,0.87622076,1
0.31958008,0.515625,1.9284668,1
0.38281253,0.6059571,1.9663087,1
0.7241211,0.623291,0.9941407,1
-0.5695801,0.067871094,1.005127,1
0.5583496,0.62841797,0.23144531,1
0.45410156,0.034179688,0.1574707,1
0.21630861,0.39111328,0.20166017,1
-0.3747559,0.5722656,0.10107422,1
-0.12182617,0.36694336,0.31152344,1
-0.063964844,0.45214844,0.32910156,0
-0.072265625,0.55322266,0.030761719,0
0.12207032,1.7114259,0.025878906,0
0.043945313,1.045166,-0.18041994,0
0.37255862,1.6589355,-0.15161133,0
0.16088867,0.95581055,0.000976563,0
0.112548836,0.92944336,-0.018066406,0
-0.05126953,0.7795411,0.14355469,0
0.2006836,0.91552734,0.40063477,0
0.3251953,1.0437012,0.50146484,0
0.3935547,0.9106446,0.4958496,0
0.42138672,0.8100586,0.5187988,0
0.22314453,0.70092773,0.45776367,0
0.2211914,0.86303717,0.40942383,0
0.22875978,0.8935547,0.39746097,0
0.28125,0.93994147,0.3581543,0
0.22094727,0.9316406,0.3220215,0
0.22607422,0.92602545,0.33740237,0
0.23486328,0.925293,0.34619144,0
0.23999023,0.90966797,0.3701172,0
0.23730469,0.89599615,0.36938477,0
0.22558594,0.8913574,0.378418,0
0.17675783,0.93042,0.3239746,0
0.21313477,0.90527344,0.35180664,0
0.26538086,0.8740235,0.40112308,0
0.27270508,0.91308594,0.3605957,0
0.2253418,0.94970703,0.3178711,0
0.18725586,0.9487305,0.33691406,0
0.18725586,0.9487305,0.33691406,0
0.095458984,0.9885254,0.32617188,0
0.08154297,0.9106446,0.3466797,0
0.12768555,0.88916016,0.33300784,0
0.21069336,0.87280273,0.35302734,0
0.2006836,0.7871094,0.545166,0
0.03491211,0.7573242,0.62402344,0
0.03491211,0.7573242,0.62402344,0
-0.001708984,0.7368164,0.62133795,0
-0.07397461,0.71777344,0.69824225,0
-0.03564453,0.7265625,0.904541,0
0.021484375,0.7102051,0.9741211,0
-0.07910156,0.38940433,0.737793,0
-0.07910156,0.38940433,0.737793,0
-0.0690918,0.73583984,0.8276367,0
-0.0690918,0.73583984,0.8276367,0
0.1525879,0.65625,0.7626954,0
0.1525879,0.65625,0.7626954,0
0.16259766,0.7531739,0.7106934,0
0.16259766,0.7531739,0.7106934,0
0.18237305,0.5612793,0.6059571,0
0.18237305,0.5612793,0.6059571,0
0.18237305,0.5612793,0.6059571,0
0.64917,0.07763672,0.44726565,0
1.1831055,-0.03125,0.1381836,0
1.1831055,-0.03125,0.1381836,0
1.0463867,-0.20874023,0.37353516,0
1.0895996,-0.3286133,0.27490234,0
1.0895996,-0.3286133,0.27490234,0
1.0141602,-0.2705078,0.20751955,0
1.0317383,-0.6357422,0.19555664,0
1.0351563,-0.5263672,-0.100830086,0
1.0195313,-0.4182129,-0.13769531,0
0.6767578,-0.68896484,0.049072266,0
0.73657227,-1.1586914,-0.0859375,0
0.935791,-0.79272467,0.15185548,0
1.0336914,-0.609375,-0.23730469,0
0.7873535,-0.545166,0.13134766,0
0.6135254,-0.5891113,0.27441406,0
0.46948242,-0.84838873,0.14404297,0
0.50805664,-0.546875,-0.20117188,0
0.3918457,-1.2138672,-0.7700196,0
0.4206543,-0.78149414,-0.47924805,0
0.6171875,-1.0058594,-0.5629883,0
0.9580078,-0.3417969,-0.94018555,0
0.87597656,-0.3652344,-0.46166992,0
0.98339844,-0.48779297,-0.51464844,0
1.0612793,-0.5812988,-0.52197266,0
1.2404786,-0.68530273,-0.6191407,0
1.0473633,-0.7717285,-0.6479492,0
1.0383301,-0.4711914,-0.61572266,0
1.1633301,-0.7116699,-0.68603516,0
1.092041,-0.6535645,-0.61376953,0
1.0117188,-0.5229492,-0.42504883,0
0.86523443,-0.35668945,-0.23706055,0
0.8310547,-0.30078128,-0.20312501,0
0.65429693,-0.19970703,-0.123291016,0
0.50024414,-0.049804688,-0.03491211,0
0.50024414,-0.049804688,-0.03491211,0
0.54248047,0.044433594,0.001953125,0
0.5571289,0.054443363,0.016601563,0
0.5812988,0.047119144,0.020751953,0
0.62866217,0.030273438,0.014892579,0
0.6894532,0.017333984,0.022949219,0
0.6894532,0.017333984,0.022949219,0
0.7739258,0.006103516,0.03100586,0
0.81347656,0.03173828,0.06933594,0
0.8186035,0.036376953,0.08569336,0
0.85864264,0.02685547,0.10180664,0
1.1364746,-0.089111336,0.054443363,0
1.1049805,-0.0703125,0.057617188,0
1.0654297,-0.064697266,0.059814453,0
1.0153809,0.033203125,0.12670898,0
0.8847656,0.06591797,0.1591797,0
0.8847656,0.06591797,0.1591797,0
0.8171387,0.05102539,0.13452148,0
0.9667969,0.026611328,0.095214844,0
0.857666,0.03955078,0.15356445,0
0.8300782,0.053222656,0.14355469,0
0.83935547,0.068603516,0.13549805,0
0.9030762,0.07958985,0.17456056,0
0.9951172,0.052734375,0.21191408,0
1.0297852,0.029052736,0.21850587,0
1.0327148,-0.012939453,0.2175293,0
1.0039063,0.003173828,0.1850586,0
1.0332031,0.021240234,0.14868164,0
0.98876953,-0.000976563,0.1303711,0
0.97558594,-0.001708984,0.12719727,0
0.9406739,0.008056641,0.1315918,0
0.9169922,0.005371094,0.12207032,0
0.98339844,-0.03051758,0.0871582,0
1.0187988,-0.029296875,0.11279297,0
0.92626953,-0.03149414,0.08886719,0
0.890625,-0.02685547,0.060302738,0
0.9291992,-0.02734375,0.051513676,0
0.9848633,-0.000732422,0.07299805,0
1.0078125,-0.008544922,0.068359375,0
0.98291016,0.009765626,0.07324219,0
0.9145508,0.008789063,0.07299805,0
0.9067383,0.010009766,0.06225586,0
0.8666993,0.024902344,0.08862305,0
0.79467773,0.028320314,0.0925293,0
0.83496094,0.012451172,0.08642578,0
0.87597656,0.045410156,0.12866211,0
0.8330079,0.011962892,0.10961915,0
0.83959967,-0.10180664,0.107910156,0
0.8076172,-0.12011719,0.15454102,0
0.77807623,-0.21630861,0.15649414,0
0.91748047,-0.32568362,0.08666992,1
0.9638672,-0.29882813,0.084472656,1
0.88208014,-0.31225586,0.1262207,1
0.7089844,-0.21142578,0.13208008,1
0.67456055,-0.09814453,0.07958985,1
0.63525397,-0.083740234,-0.06665039,1
0.7043457,-0.12768555,-0.14501953,1
0.62597656,0.11010742,-0.1887207,1
0.50561523,-0.08276367,-0.13354492,1
0.5029297,0.23046875,-0.12231445,1
0.26733398,-0.28051758,-0.14770508,1
-0.091552734,-0.15478517,-0.16210939,1
-0.5859375,-0.60815436,-0.004638672,1
1.4099121,4.175293,3.5703125,1
1.96875,1.9172364,3.7768555,1
2.0651855,2.4189453,1.4643555,1
1.5825197,0.55737305,1.1335449,1
-0.3552246,0.5,2.9916992,1
0.670166,1.4655762,1.0556641,1
0.1875,0.5070801,0.6984863,1
0.33886722,0.38085938,0.49609375,1
0.5900879,0.16796876,0.2553711,1
0.68212897,0.82666016,0.1953125,1
-0.1381836,0.50439453,0.24194337,1
-0.48217773,0.2578125,0.25927734,1
-0.39770508,0.5517578,0.10375977,0
-0.3034668,0.83984375,0.02709961,0
-0.31640625,0.55200195,0.17675783,0
-0.25195313,0.35107422,0.40893555,0
-0.09350587,0.472168,0.6164551,0
0.28076172,1.3991699,0.81542975,0
0.5966797,0.72998047,1.3596191,0
0.6437988,1.4792482,1.2280275,0
0.072509766,0.28222656,0.58325195,0
0.042236328,0.40820313,0.51953125,0
0.11450195,0.72460943,0.54956055,0
0.099121094,0.7172852,0.5678711,0
0.23291016,1.0690918,0.49414065,0
0.2758789,1.0947266,0.42675784,0
0.20141602,0.9084473,0.38281253,0
0.15063477,0.8232422,0.38476563,0
0.15771486,0.92578125,0.4050293,0
0.17407227,0.98901373,0.39575195,0
0.17358398,0.93530273,0.4152832,0
0.17358398,0.93530273,0.4152832,0
0.14013672,0.90356445,0.44262695,0
0.14013672,0.90356445,0.44262695,0
0.09936524,0.80590826,0.47265625,0
0.08959961,0.77246094,0.48291016,0
0.1723633,0.84619147,0.46142578,0
0.1723633,0.84619147,0.46142578,0
0.20825197,0.96728516,0.39624023,0
0.20825197,0.96728516,0.39624023,0
0.15942383,0.92578125,0.37573242,0
0.15942383,0.92578125,0.37573242,0
0.13769531,0.89624023,0.3786621,0
0.14086914,0.8859863,0.37963867,0
0.16723634,0.93359375,0.35009766,0
0.000732422,0.9848633,0.37524414,0
0.09350587,0.80517584,0.53759766,0
0.21142578,0.6923829,0.70874023,0
0.11206055,0.6740723,0.75512695,0
0.09570313,0.70825195,0.7036133,0
0.09008789,0.71899414,0.68212897,0
0.07812501,0.7258301,0.8244629,0
0.032714844,0.77880865,0.6789551,0
0.16137697,0.99902344,0.6037598,0
0.27929688,0.6760254,0.6340332,0
0.12475586,0.6455079,0.60253906,0
0.6003418,0.5671387,0.47094727,0
0.6567383,0.50097656,0.37670898,0
0.6394043,0.39086917,0.38647464,0
0.61499023,-0.05419922,0.2705078,0
0.53393555,-0.2294922,0.31201172,0
0.8251953,0.06225586,0.6665039,0
0.58691406,0.08496094,0.47460938,0
1.375,0.31323245,0.23974611,0
1.1196289,-0.34985355,0.13354492,0
1.2734376,-0.26611328,0.2854004,0
1.0031738,-0.21313477,0.35083008,0
0.92578125,-0.33862305,0.06347656,0
0.9987793,-0.38378906,0.14404297,0
1.0170898,-0.48022464,0.051513676,0
0.96606445,-0.44970703,0.0925293,0
0.89306647,-0.5073242,-0.047119144,0
0.98901373,-0.45922852,-0.099121094,0
0.795166,-0.3652344,0.040527347,0
0.99072266,-0.49975586,-0.02734375,0
0.8984375,-0.28686523,0.030029297,0
1.0163574,-0.42968753,-0.046875,0
0.8273926,-0.6254883,0.002929688,0
1.0024414,-0.41064456,0.16259766,0
0.98779297,-0.6123047,-0.13061523,0
1.2060548,-0.65112305,-0.25048828,0
0.85278326,-0.53271484,-0.35766602,0
0.82275397,-0.4909668,-0.345459,0
0.93310547,-0.48315433,-0.2878418,0
0.8105469,-0.49291992,-0.26904297,0
0.6582031,-0.39282227,-0.2878418,0
0.6508789,-0.2475586,-0.2541504,0
0.6508789,-0.2475586,-0.2541504,0
0.42138672,-0.48120117,-0.32910156,0
0.40014648,-0.87890625,-0.45996094,0
0.52124023,-1.0852051,-0.4506836,0
0.64477545,-0.9245606,-0.30322266,0
0.56591797,-1.1203613,-0.5378418,0
0.56591797,-1.1203613,-0.5378418,0
0.9040528,-0.36572266,-0.5378418,0
0.97558594,-0.5727539,-0.6159668,0
0.97558594,-0.5727539,-0.6159668,0
0.99365234,-0.5461426,-0.7297364,0
1.088623,-0.59814453,-0.7304688,0
1.2348633,-0.54296875,-0.77880865,0
0.96923834,-0.5871582,-0.70288086,0
1.137207,-0.5073242,-0.5966797,0
0.92407227,-0.6472168,-0.49658203,0
0.9267579,-0.59594727,-0.42968753,0
0.8942871,-0.35107422,-0.1875,0
0.78808594,-0.2902832,-0.0703125,0
0.7709961,-0.27612305,-0.0625,0
0.65795904,-0.1381836,-0.07055664,0
0.63745123,-0.09448242,-0.058837894,0
0.6694336,-0.035888672,-0.021484375,0
0.7023926,-0.010009766,0.006591797,0
0.7241211,-0.017578125,0.016845703,0
0.75903326,-0.021484375,0.014648438,0
0.7807617,0.000976563,0.020751953,0
0.7326661,0.012207031,0.02685547,0
0.7104492,0.008300781,0.02709961,0
0.7709961,-0.04663086,-0.003417969,0
0.83886725,0.00390625,0.010986328,0
0.88867193,-0.019042969,0.027832031,0
1.0488281,-0.029052736,0.013183594,0
1.015625,-0.032226563,0.001464844,0
0.9501954,-0.03930664,0.0234375,0
0.94189453,-0.040283203,0.029052736,0
0.96997076,-0.013671875,0.0456543,0
1.0031738,-0.016601563,0.068847656,0
0.93652344,0.004150391,0.07861328,0
0.82202154,0.007568359,0.079833984,0
0.7934571,0.03491211,0.06567383,0
0.80908203,0.03515625,0.07397461,0
0.9777832,0.015625,0.09375,0
0.84814453,0.023193361,0.14794922,0
0.92871094,0.067871094,0.22241211,0
1.2431641,-0.16186523,0.4116211,0
1.0595703,0.24536133,-0.022216797,0
0.94677734,0.27734375,-0.10473633,0
1.0705566,0.14355469,-0.08300781,0
0.8442383,0.05493164,0.000732422,0
0.9248047,-0.11108399,0.0793457,0
1.0437012,0.025634766,0.07812501,0
0.9553223,0.022705078,0.03540039,0
0.91918945,0.055664063,-0.025878906,0
0.9265137,0.052734375,-0.032226563,0
1.0114746,0.015625,0.001708984,0
1.0605469,-0.0078125,0.03173828,0
1.0605469,-0.0078125,0.03173828,0
1.0041504,0.002685547,0.025390627,0
0.96923834,0.014404297,0.030273438,0
0.96923834,0.014404297,0.030273438,0
0.9812012,0.025634766,0.05029297,0
0.96557623,0.010253906,0.064453125,0
0.9948731,0.014404297,0.07006836,0
0.9956055,0.004150391,0.07324219,0
0.97583014,0.005371094,0.07666016,0
0.95312506,0.01879883,0.11303711,0
0.9321289,0.01977539,0.13549805,0
0.95898443,0.014648438,0.1484375,0
0.98242193,-0.018066406,0.17553711,0
0.9853516,-0.01977539,0.17309572,0
0.9414063,0.013671875,0.20922852,0
0.79956055,0.05004883,0.19165039,0
0.6738281,0.043457035,0.12817383,0
0.8779297,-0.017578125,0.040771484,0
1.119873,0.037353516,0.0703125,0
1.0163574,0.06689453,0.085449226,0
1.0629883,-0.03515625,0.027587892,0
0.93603516,0.03515625,0.19067384,0
0.78125,0.05419922,0.21020508,0
0.709961,0.017089844,0.1826172,0
0.7873535,0.026367188,0.13305664,0
0.7670899,-0.00390625,0.15576172,0
0.78930664,-0.064697266,0.14282227,0
0.6442871,-0.2824707,-0.016601563,0
0.6442871,-0.2824707,-0.016601563,0
0.6442871,-0.2824707,-0.016601563,0
0.8156738,-0.23291016,-0.10156251,0
0.8156738,-0.23291016,-0.10156251,0
0.8156738,-0.23291016,-0.10156251,1
0.8156738,-0.23291016,-0.10156251,1
0.8486328,-0.26708984,-0.13256836,1
0.8112793,-0.2409668,-0.11840821,1
0.6088868,-0.2631836,0.034423828,1
0.5686035,-0.3249512,0.25048828,1
0.5698242,-0.29638672,0.28833008,1
0.65405273,-0.092285156,0.2258301,1
0.65405273,-0.092285156,0.2258301,1
0.65405273,-0.092285156,0.2258301,1
0.65405273,-0.092285156,0.2258301,1
0.65405273,-0.092285156,0.2258301,1
0.59350586,-0.016845703,0.17968751,1
3.7578125,2.4260256,3.3083496,1
0.39282227,0.1789551,0.17333984,1
0.36645508,0.814209,0.061523438,1
0.002197266,0.43896484,0.17138672,1
-0.5671387,0.41259766,0.21166992,1
-0.5932617,0.41552734,0.030273438,1
-0.32299805,0.56591797,0.072753906,1
-0.11645508,0.5966797,0.11425781,1
-0.15844728,0.52246094,0.31420898,1
-0.092285156,0.46118167,0.45141602,1
0.040039063,0.5114746,0.5595703,1
0.43334964,2.8962405,1.1159668,1
0.4284668,1.2260742,1.0270996,0
-0.052246097,0.29956055,0.501709,0
0.03491211,0.45874023,0.41137698,0
0.14794922,0.71215826,0.3449707,0
0.18432617,0.6591797,0.45971683,0
0.27905273,0.8732911,0.50634766,0
0.4020996,1.1950684,0.5517578,0
0.35424808,1.0939941,0.37280273,0
0.22875978,0.8017578,0.35180664,0
0.13476563,0.78637695,0.37768558,0
0.2019043,0.87622076,0.45214844,0
0.2709961,0.95703125,0.44335938,0
0.34692386,0.9914551,0.35937503,0
0.328125,0.91748047,0.32885742,0
0.22729494,0.86865234,0.3652344,0
0.22729494,0.86865234,0.3652344,0
0.13232422,0.8937989,0.52368164,0
0.03149414,0.70166016,0.55371094,0
0.08276367,0.72143555,0.60815436,0
0.045166016,0.62524414,0.70556647,0
0.04248047,0.6188965,0.75341797,0
0.002685547,0.43823242,0.80908203,0
0.046386722,0.41748047,0.9946289,0
0.02685547,0.46679688,1.0812988,0
0.010986328,0.42675784,0.8859863,0
-0.001464844,0.49340823,0.9545899,0
0.05419922,0.63623047,1.0107422,0
0.104003906,0.7136231,0.7165528,0
0.27197266,0.9199219,0.6333008,0
0.1760254,0.49609375,0.7441406,0
0.31152344,0.5048828,0.6657715,0
0.45410156,0.5488281,0.63427734,0
0.47631836,0.45922852,0.5505371,0
0.46655273,0.4177246,0.42211914,0
0.41455078,-0.020263674,0.16796876,0
0.79272467,-0.6462403,0.10522462,0
0.9951172,0.119873054,0.49438477,0
0.9951172,0.119873054,0.49438477,0
1.199707,-0.17138672,0.15991212,0
1.199707,-0.17138672,0.15991212,0
1.0600586,-0.378418,0.24658203,0
1.0600586,-0.378418,0.24658203,0
1.0900879,-0.29077148,0.13452148,0
1.0180664,-0.4638672,0.10620117,0
1.0180664,-0.4638672,0.10620117,0
0.9680176,-0.517334,0.000488281,0
1.0356445,-0.5432129,0.05834961,0
1.020752,-0.69799805,0.019042969,0
0.99902344,-0.54956055,-0.34350586,0
0.99902344,-0.54956055,-0.34350586,0
0.52490234,-0.8549805,-0.042724613,0
0.95312506,-0.723877,-0.24487306,0
0.95312506,-0.723877,-0.24487306,0
0.770752,-0.86230475,-0.33496094,0
0.6611328,-0.7207031,0.015380859,0
0.77807623,-0.9216309,-0.33227542,0
0.63623047,-1.0686035,-0.22387695,0
0.63623047,-1.0686035,-0.22387695,0
0.39624023,-1.0385742,-0.23461916,0
0.39624023,-1.0385742,-0.23461916,0
0.39624023,-1.0385742,-0.23461916,0
0.39624023,-1.0385742,-0.23461916,0
0.39624023,-1.0385742,-0.23461916,0
0.5258789,-0.57788086,-0.4824219,0
0.83569336,-0.7062989,-0.34204102,0
0.923584,-0.9216309,-0.6291504,0
1.2731934,-0.43432617,-0.46728516,0
0.92993164,-0.69824225,-0.34326175,0
0.9670411,-0.5866699,-0.17285156,0
0.8842774,-0.50024414,-0.09008789,0
0.82836914,-0.44482422,-0.048339844,0
0.82836914,-0.44482422,-0.048339844,0
0.71484375,-0.36328125,-0.03515625,0
0.63159186,-0.32836914,-0.025634766,0
0.5046387,-0.29638672,0.026123049,0
0.60156256,-0.24487306,0.044189457,0
0.61450195,-0.2421875,0.055175785,0
0.5986328,-0.21118166,0.04248047,0
0.6599121,-0.1484375,0.060546875,0
0.65795904,-0.123046875,0.06274414,0
0.7165528,-0.09301758,0.05419922,0
0.84179693,-0.072021484,0.06762695,0
0.8547363,-0.03491211,0.068603516,0
0.9350586,-0.051757813,0.08032227,0
0.96728516,-0.059326172,0.081054695,0
1.1542969,-0.063964844,0.1303711,0
1.1425781,-0.06274414,0.16552734,0
1.0559082,-0.053955078,0.17114258,0
0.9562988,-0.036376953,0.114990234,0
0.9104004,-0.084228516,0.07958985,0
1.0949707,-0.06176758,0.091796875,0
1.0427246,-0.043701172,0.100830086,0
0.9814453,-0.03833008,0.104003906,0
0.9812012,-0.053955078,0.08276367,0
1.0666504,-0.08203125,0.06958008,0
1.1052246,-0.1381836,0.04125977,0
1.0529785,-0.11743164,0.03100586,0
0.9628906,-0.084228516,0.015136719,0
0.9611817,-0.07348633,0.016113281,0
1.0114746,-0.09448242,0.002685547,0
1.0908203,-0.10375977,-0.0234375,0
1.0031738,-0.07373047,-0.025146484,0
1.0532227,-0.06298828,-0.009765626,0
0.94921875,-0.033203125,0.01928711,0
0.8376465,-0.01977539,0.060302738,0
0.8674317,-0.028564453,0.06176758,0
0.8967286,-0.036376953,0.052490234,0
0.9406739,-0.045166016,0.05371094,0
0.98779297,-0.041503906,0.107177734,0
0.9812012,-0.029296875,0.107666016,0
0.9489746,0.057617188,0.103271484,0
0.92968756,0.09497071,0.1352539,0
0.92993164,0.0979004,0.13867188,0
1.0205078,0.08178712,0.106933594,0
1.0866699,0.06201172,0.09692383,0
1.1101074,0.07128906,0.091796875,0
1.1101074,0.07128906,0.091796875,0
1.1247559,0.06762695,0.09033203,0
1.1247559,0.06762695,0.09033203,0
1.1164551,0.071777344,0.11816406,0
1.1164551,0.071777344,0.11816406,0
0.9882813,0.10009766,0.14160156,0
0.8640137,0.107666016,0.140625,0
0.828125,0.11010742,0.13867188,0
0.81835943,0.100830086,0.1274414,0
0.81835943,0.100830086,0.1274414,0
0.8601075,0.07885743,0.11914063,0
0.9592285,0.020751953,0.10571289,0
0.9711914,-0.002441407,0.10839844,0
0.9711914,-0.002441407,0.10839844,0
0.9711914,-0.002441407,0.10839844,0
0.9499512,-0.018554688,0.11279297,0
0.9741211,-0.07763672,0.12353516,0
0.9094238,-0.040527347,0.13330078,0
0.82299805,-0.07446289,0.16918945,0
0.6508789,-0.1352539,0.1616211,1
0.64160156,-0.11328126,0.16796876,1
0.6298828,-0.15405275,0.19067384,1
0.4506836,-0.24780275,0.21655273,1
0.48046875,-0.26049805,0.20654297,1
0.6296387,-0.24853517,0.109375,1
0.5480957,-0.3947754,-0.22680664,1
0.5480957,-0.3947754,-0.22680664,1
0.24511719,-0.1574707,-0.046875,1
0.24511719,-0.1574707,-0.046875,1
0.14672852,0.23364258,-0.110839844,1
0.26342773,0.6047363,0.087890625,1
0.71484375,0.12939453,0.7407227,1
3.3266602,4.550293,5.711426,1
0.020996096,2.4389648,-0.8813477,1
3.213623,1.2902833,2.5825195,1
-1.6982423,0.37109378,2.8342285,1
-1.0668945,-0.35595703,1.6293947,1
0.35937503,0.043701172,0.5991211,1
-0.37963867,-0.2192383,-0.005859375,1
0.2211914,0.34936523,-0.067871094,1
0.4177246,0.89599615,-0.08618165,1
0.27661133,0.8364258,0.64477545,1
0.06689453,1.4194336,0.7116699,1
-0.20288086,0.028076172,1.2646486,1
-0.17871094,0.28125,0.85961914,0
0.03930664,0.51416016,0.7397461,0
0.05004883,0.44311523,0.8120117,0
0.13061523,0.44946292,0.878418,0
0.18383789,0.71508795,0.7941895,0
0.12988281,0.5671387,0.7275391,0
0.19628906,0.6064453,0.79858404,0
0.17675783,0.59594727,0.7980957,0
0.12963867,0.5720215,0.8046875,0
0.076171875,0.50512695,0.8410645,0
0.10229493,0.5449219,0.8105469,0
0.11816406,0.59936523,0.7973633,0
0.11816406,0.59936523,0.7973633,0
0.08081055,0.62426764,0.76538086,0
0.087402344,0.5957031,0.7807617,0
0.14575195,0.5834961,0.7795411,0
0.16235352,0.5566406,0.7912598,0
0.06982422,0.64941406,0.673584,0
0.10131836,0.6904297,0.62158203,0
0.07763672,0.84252936,0.51171875,0
0.15161133,0.7937012,0.5710449,0
0.25048828,0.76220703,0.6743164,0
0.3269043,0.74218756,0.70947266,0
0.3212891,0.71606445,0.72558594,0
0.1875,0.5488281,0.91308594,0
0.21020508,0.53564453,0.8198243,0
0.24072266,0.5944824,0.75830084,0
0.28588867,0.6164551,0.68774414,0
0.19140626,0.5161133,0.7626954,0
0.16796876,0.50683594,0.77856445,0
0.2956543,0.5625,0.7634278,0
0.35766602,0.48364258,0.77124023,0
0.4050293,0.49536133,0.69897467,0
0.4873047,0.5407715,0.62231445,0
0.5341797,0.43408206,0.7644043,0
0.54296875,0.4758301,0.64575195,0
0.52563477,0.58984375,0.60058594,0
0.53808594,0.4572754,0.66259766,0
0.6789551,0.36596683,0.46289063,0
0.6789551,0.36596683,0.46289063,0
0.5292969,0.4543457,0.47485352,0
0.45019534,0.28710938,0.31250003,0
0.55126953,0.6398926,0.44702148,0
1.1208496,-0.052246097,0.05664063,0
0.5349121,0.8000489,0.08032227,0
1.2263184,-0.05102539,0.016113281,0
0.95678717,0.3381348,0.18823242,0
1.239502,0.07666016,0.2060547,0
1.3154297,0.29589844,-0.037353516,0
1.3154297,0.29589844,-0.037353516,0
1.2531738,0.1525879,0.023925783,0
1.1760254,0.15283203,0.07885743,0
1.126709,0.08764649,0.14355469,0
0.95971686,0.059326172,0.023193361,0
1.0805664,0.017333984,-0.10595704,0
0.904541,0.005126953,-0.12817383,0
0.9106446,0.05493164,-0.013671875,0
0.91308594,-0.005615235,-0.030273438,0
0.68115234,0.09863282,0.031982422,0
0.68115234,0.09863282,0.031982422,0
1.1235352,0.04248047,-0.003173828,0
1.067627,0.01977539,-0.048339844,0
1.206543,-0.033691406,-0.03930664,0
0.9472657,0.048583988,-0.15820313,0
1.0126953,-0.020751953,0.001220703,0
0.9719238,0.05371094,-0.16210939,0
0.91552734,-0.013671875,-0.028320314,0
1.0358887,-0.028076172,-0.038085938,0
1.1606445,0.06542969,-0.20141602,0
1.2866212,-0.12109375,-0.46972656,0
1.1804199,-0.10668946,-0.546875,0
1.1293945,-0.20483398,-0.63842773,0
1.1865234,-0.28271484,-0.6970215,0
1.1159668,-0.3513184,-0.5180664,0
1.1237793,-0.15454102,-0.3110352,0
1.144043,-0.17138672,0.014648438,0
1.0839844,-0.10913086,0.0234375,0
1.1486816,-0.028808594,-0.0715332,0
1.2700195,-0.16772461,-0.43798828,0
1.2431641,-0.13720703,-0.91918945,0
1.0366211,-0.17138672,-0.8671875,0
1.0817871,-0.20141602,-0.82568365,0
1.0598145,-0.1027832,-0.7687988,0
0.99609375,-0.1784668,-0.5739746,0
0.9980469,-0.23388673,-0.49316406,0
0.92041016,-0.31909183,-0.41430667,0
0.7277832,-0.14672852,-0.30566406,0
0.7341309,-0.08569336,-0.18481447,0
0.7363282,-0.077392586,-0.19238281,0
0.7126465,-0.06738281,-0.19067384,0
0.7067871,-0.026123049,-0.17260742,0
0.6809082,0.0546875,-0.17968751,0
0.6567383,0.064941406,-0.18774416,0
0.7370606,0.10546875,-0.21411134,0
0.71240234,0.12231445,-0.22216798,0
0.7729493,0.1105957,-0.24047853,0
0.81274414,0.14648438,-0.25878906,0
0.8276367,0.13793945,-0.28271484,0
0.9782715,0.1550293,-0.31445313,0
0.96069336,0.14916992,-0.28710938,0
0.9208985,0.072753906,-0.2770996,0
0.9208985,0.072753906,-0.2770996,0
0.9345703,0.06347656,-0.25708008,0
0.9345703,0.06347656,-0.25708008,0
0.93359375,0.064697266,-0.23925781,0
0.93359375,0.064697266,-0.23925781,0
0.9328613,0.060791016,-0.20581055,0
0.9328613,0.060791016,-0.20581055,0
0.9135743,0.05859375,-0.18237305,0
0.9135743,0.05859375,-0.18237305,0
0.970459,0.004150391,-0.12963867,0
0.970459,0.004150391,-0.12963867,0
0.9968262,0.051757813,-0.1159668,0
0.9968262,0.051757813,-0.1159668,0
1.0664063,0.06567383,-0.11840821,0
1.3188478,0.10522462,-0.15209961,0
0.8549805,0.004882813,0.02368164,0
1.0324707,0.07446289,0.12280274,0
1.0056152,0.08691407,0.09057618,0
0.95336914,0.10156251,0.09008789,0
0.90234375,0.07373047,0.095214844,0
0.8710938,0.09301758,0.07128906,0
0.8666993,0.15405275,0.049072266,0
0.8815918,0.1994629,0.020507813,0
0.9013672,0.20458986,0.014648438,0
1.0163574,0.2487793,0.017333984,0
0.9946289,0.25219727,0.033935547,0
0.9782715,0.2409668,0.024658205,0
0.9938965,0.23242189,0.021484375,0
0.9748535,0.2258301,-0.037353516,0
0.9748535,0.2258301,-0.037353516,0
0.9450684,0.27197266,-0.014160157,0
0.8449707,0.25756836,0.016845703,0
0.82666016,0.25463867,0.012207031,0
0.8046875,0.236084,0.01977539,0
0.9316406,0.18286133,0.038085938,0
1.0009766,0.14501953,0.017089844,0
1.2553711,0.25854492,-0.01977539,0
1.3815918,0.1459961,-0.06665039,0
1.0913086,0.24365234,-0.056396484,0
0.95239264,0.22680664,-0.01977539,0
0.8178711,0.2763672,-0.010986328,0
0.76660156,0.24023438,-0.020996096,0
0.75268555,0.2319336,-0.010986328,0
0.74780273,0.20507813,-0.032226563,0
0.7980957,0.25317383,-0.033447266,0
0.8103028,0.2709961,-0.036132813,0
0.76904297,0.28686523,-0.035888672,0
0.86230475,0.57128906,-0.033203125,0
0.90966797,0.7324219,0.02734375,0
0.9243164,0.6733399,0.02685547,0
0.91381836,0.66918945,-0.038085938,0
0.87939453,0.7036133,0.025146484,0
0.8872071,0.65795904,0.033447266,0
0.8120117,0.5908203,-0.053955078,0
0.8532715,0.60058594,-0.025390627,0
0.8569336,0.6206055,-0.014404297,0
0.8120117,0.69531256,-0.03173828,0
0.86279297,0.74584967,-0.059814453,0
0.8278809,0.8239746,-0.06958008,0
0.7297364,0.7819824,0.007324219,0
0.6740723,0.78540045,-0.058105472,0
0.6455079,0.8288574,-0.09326172,0
0.57421875,0.7302246,-0.042724613,0
0.517334,0.7578125,-0.037109375,0
0.328125,0.8381348,-0.15649414,0
0.3239746,0.88842773,-0.14916992,0
0.32958984,0.87353516,-0.12890625,0
0.30664065,0.9440918,-0.072265625,0
0.29785156,0.9619141,-0.09033203,0
0.30029297,0.8798829,-0.13598633,0
0.33251953,0.9787598,-0.17944336,0
0.34912112,0.984375,-0.124267586,0
0.35595703,0.8984375,-0.06298828,0
0.31811523,0.9816895,-0.08935547,0
0.2915039,0.9487305,-0.10546875,0
0.30029297,0.9667969,-0.11376953,0
0.27612305,0.93334967,-0.1147461,0
0.28173828,0.98413086,-0.1171875,0
0.28442383,0.9853516,-0.12573242,0
0.30737308,1.0183105,-0.12915039,0
0.3015137,1.0004883,-0.106933594,0
0.2902832,0.98022467,-0.1496582,0
0.30419922,0.9812012,-0.14697266,0
0.29223633,0.96069336,-0.13574219,0
0.29858398,0.95043945,-0.14282227,0
0.30859375,0.972168,-0.1459961,0
0.33276367,0.9675293,-0.14624023,0
0.328125,0.96435547,-0.14135742,0
0.33422852,0.9382324,-0.13305664,0
0.32714847,0.9423828,-0.13476563,0
0.3310547,0.92871094,-0.11352539,0
0.33374026,0.9309082,-0.12866211,0
0.34692386,0.95239264,-0.11376953,0
0.35229492,0.9919434,-0.1274414,0
0.34521484,0.991211,-0.119628906,0
0.32958984,0.93627936,-0.16381836,0
0.30664065,0.9057617,-0.13671875,0
0.3071289,0.8833008,-0.11547852,0
0.30126953,0.9406739,-0.10107422,0
0.30273438,0.9250488,-0.1418457,0
0.30273438,0.9250488,-0.1418457,0
0.2944336,0.96264654,-0.16674805,0
0.2944336,0.96264654,-0.16674805,0
0.2944336,0.96264654,-0.16674805,0
0.3203125,0.9489746,-0.12548828,0
0.3449707,0.9875489,-0.1328125,0
0.36206055,0.96313477,-0.123291016,0
0.34887695,1,-0.14135742,0
0.34619144,0.9638672,-0.14233398,0
0.96899414,0.1953125,-0.050781254,0
0.9914551,0.18334962,-0.044677734,0
1.0007324,0.18554689,-0.042236328,0
1.0007324,0.18554689,-0.042236328,0
1.0007324,0.18554689,-0.042236328,0
0.9746094,0.20727539,-0.051757813,0
0.9645996,0.20214844,-0.049804688,0
0.9645996,0.20214844,-0.049804688,0
0.9641114,0.19897461,-0.0456543,0
0.96923834,0.19628906,-0.060791016,0
0.9782715,0.20117188,-0.05029297,0
0.98242193,0.19750977,-0.048095703,0
0.95605475,0.19140626,-0.058105472,0
0.9572754,0.19311523,-0.06713867,0
0.9658203,0.19140626,-0.068847656,0
0.98022467,0.1525879,-0.048095703,0
1.0319824,0.13574219,-0.03564453,0
1.0449219,0.0793457,0.01977539,0
0.9838868,0.068603516,0.048828125,0
1.0498047,0.05029297,0.04296875,0
1.0324707,0.04931641,0.05029297,0
1.026123,0.08276367,0.014648438,0
1.0537109,0.22021484,-0.032226563,0
1.0751953,0.18334962,-0.1394043,0
0.67773443,0.23901369,-0.0925293,0
0.8305664,0.27270508,-0.19726564,0
0.9736329,0.23413086,-0.25219727,0
0.80859375,0.15234375,-0.09887695,0
0.80859375,0.15234375,-0.09887695,0
0.8208008,0.48706055,-0.14990234,0
0.8208008,0.48706055,-0.14990234,0
0.8432618,0.4519043,-0.17529298,0
0.8432618,0.4519043,-0.17529298,0
0.85546875,0.4655762,-0.18041994,0
0.85546875,0.4655762,-0.18041994,0
0.8608399,0.46069336,-0.22167969,0
0.8608399,0.46069336,-0.22167969,0
0.88867193,0.44555664,-0.24731445,0
0.88867193,0.44555664,-0.24731445,0
0.9482422,0.43481448,-0.30590823,0
0.9482422,0.43481448,-0.30590823,0
0.96362305,0.39990234,-0.3269043,0
0.96362305,0.39990234,-0.3269043,0
0.96362305,0.39990234,-0.3269043,0
0.9648438,0.31323245,-0.3269043,0
1.105957,0.17529298,-0.34716797,0
0.97314453,0.27197266,-0.15527344,0
0.9436036,0.23828126,-0.041503906,0
0.9814453,0.16186523,-0.044433594,0
0.9111328,0.21826172,-0.044433594,0
0.84375,0.24975586,-0.059814453,0
0.8210449,0.21386719,-0.100830086,0
0.9450684,0.23022462,-0.09448242,0
0.90893555,0.23901369,-0.08764649,0
0.8137207,0.24072266,-0.08886719,0
0.89965826,0.23974611,-0.087402344,0
0.89965826,0.23974611,-0.087402344,0
1.241211,0.23803711,-0.2512207,0
0.89526373,0.21850587,-0.24169922,0
0.71972656,0.1723633,-0.19262695,0
0.9638672,0.2697754,-0.15625001,0
1.0881348,0.31201172,-0.17651367,0
1.1137695,0.34399417,-0.18603516,0
1.0681152,0.2956543,-0.19628906,0
1.0410156,0.20507813,-0.20458986,0
0.9958496,0.09692383,-0.21972656,0
0.9958496,0.09692383,-0.21972656,0
0.9753418,0.13671875,-0.24316406,0
0.9472657,0.027832031,-0.20825197,0
0.9472657,0.027832031,-0.20825197,0
0.9001465,-0.022949219,-0.22875978,0
0.93652344,0.0925293,-0.26611328,0
0.9562988,0.122558594,-0.27685547,0
0.998291,0.14135742,-0.28686523,0
1.2082521,0.12280274,-0.3447266,0
0.92871094,0.13085938,-0.3071289,0
0.763916,0.13500977,-0.23706055,0
0.9621582,-0.13891602,-0.103515625,0
0.9621582,-0.13891602,-0.103515625,0
0.8730469,0.15136719,0.063964844,0
0.9545899,0.34448242,-0.011474609,0
1.0075684,0.23950195,-0.06933594,0
0.98779297,0.24951172,-0.08081055,0
0.96362305,0.19799806,-0.09472656,0
0.94091797,0.1328125,-0.13427734,0
0.8911133,0.09350587,-0.19311523,0
0.875,0.08764649,-0.19067384,0
0.86938477,0.1171875,-0.16723634,0
0.8679199,0.115234375,-0.1657715,0
0.8737793,0.16235352,-0.16137697,0
0.97387695,0.16967773,-0.16015625,0
0.73828125,0.2590332,-0.039794926,0
0.883545,0.20898439,-0.07397461,0
0.96728516,0.2524414,-0.107666016,0
0.9904786,0.32470703,-0.13110352,0
0.98217773,0.3383789,-0.027587892,0
0.8984375,0.3110352,0.11279297,0
1.0615234,0.39916992,0.107910156,1
1.0908203,0.41381836,0.14404297,1
1.1330566,0.40795898,0.07788086,1
1.0529785,-0.052734375,-0.4423828,1
1.1577148,-1.2307129,-1.3779297,1
0.46411136,-0.23388673,-0.27026367,1
0.65185547,-0.2866211,-0.48046875,1
0.74194336,-0.09082031,0.064697266,1
0.6462403,-0.05419922,0.31396487,1
0.5241699,-0.040039063,0.015380859,1
0.34570313,-0.31298828,-0.068847656,1
0.11669922,0.5439453,0.58081055,1
-0.3381348,0.5473633,0.34570313,1
2.475098,3.6601565,1.4226074,1
3.1618652,0.9575196,0.13305664,1
2.571289,2.2644043,0.024414063,1
0.74609375,0.6164551,-1.6633301,1
0.09448242,0.31274414,-0.20117188,1
-0.079833984,1.3005372,0.6459961,1
0.48339844,1.4919434,-0.29589844,1
0.40795898,1.2619629,0.17675783,1
-1.3059082,0.79858404,1.0478516,1
-0.8625488,0.30395508,0.45605472,1
-0.11914063,-0.9367676,0.27807617,1
-0.29516602,1.1040039,-0.16381836,1
-0.14135742,0.30566406,0.43041995,0
-0.033935547,0.38061526,0.4572754,0
-0.59350586,1.0366211,0.5078125,0
-0.75903326,1.3503419,0.40649414,0
-0.3239746,0.9746094,0.38964844,0
-0.41723636,1.019043,0.32910156,0
-0.43701175,1.1054688,0.24780275,0
-0.3972168,0.9770508,0.3876953,0
-0.39135742,0.9367676,0.41845703,0
-0.18969727,0.67480475,0.5053711,0
0.02246094,0.5114746,0.6386719,0
-0.05029297,0.6159668,0.67480475,0
-0.025634766,1.0734863,0.5114746,0
-0.08300781,1.3193359,0.35253906,0
-0.36279297,-0.03564453,0.3081055,0
-0.2993164,0.4519043,0.30224612,0
-0.35888672,1.3574219,-0.5751953,0
-0.11914063,1.1330566,-0.26586914,0
0.08398438,1.3647461,-0.11669922,0
0.13549805,0.9838868,-0.10180664,0
0.13549805,0.9838868,-0.10180664,0
0.27392578,0.9873047,-0.109375,0
0.32299805,0.90966797,0.003417969,0
0.33789063,1.1044922,-0.36938477,0
0.37622073,1.1662598,-0.44799808,0
0.34887695,0.7849121,0.1760254,0
0.38110352,0.84887695,0.28808594,0
0.82275397,1.1057129,0.09838867,0
0.8918457,1.1430664,0.19506837,0
0.63549805,1.0517578,0.064941406,0
0.7402344,1.3586426,0.24780275,0
0.7080078,1.2031251,0.26660156,0
0.7446289,1.1123047,0.014648438,0
0.44628906,2.166504,-0.005859375,0
-0.051757813,1.5251465,-0.2229004,0
0.021484375,0.5131836,-0.25097656,0
0.040527347,-0.005859375,-0.14038086,0
0.20947266,-1.064209,-0.18847658,0
0.46142578,-0.6462403,-0.3515625,0
2.08667,-1.6577148,-0.64941406,0
1.8652345,-1.7495118,-1.1669922,0
1.3627931,0.37597656,0.004150391,0
1.2299805,0.47607422,0.2258301,0
1.0944824,-0.14233398,-0.61279297,0
1.4504395,-0.053466797,-0.5371094,0
0.7097168,-0.45312503,-0.53393555,0
0.79663086,-0.05297852,0.023193361,0
0.73095703,-0.025634766,0.11328126,0
1.0905762,-0.2980957,-0.50561523,0
1.5134277,-0.8967286,-1.1540527,0
1.6210938,-1.036377,-1.112793,0
1.5249023,-0.7800293,-0.91259766,0
1.1047363,-0.47363284,-0.15429688,0
0.9226074,-0.9641114,-0.21142578,0
1.2336426,-1.1193848,-0.68798834,0
1.2336426,-1.1193848,-0.68798834,0
1.1037598,-1.3293457,-0.6835938,0
1.1037598,-1.3293457,-0.6835938,0
1.4570313,-0.14624023,-0.21459961,0
1.4570313,-0.14624023,-0.21459961,0
1.4309083,0.26586914,-0.29174805,0
1.4309083,0.26586914,-0.29174805,0
0.69873047,-0.2258301,-1.0187988,0
0.69873047,-0.2258301,-1.0187988,0
0.82836914,-0.37426758,-0.85009766,0
0.82836914,-0.37426758,-0.85009766,0
0.5344238,-0.0546875,0.045410156,0
0.5812988,-0.06323242,-0.19726564,0
0.7729493,-0.025634766,-0.23754884,0
0.9609375,0.15893555,-0.2836914,0
0.9086914,0.31542972,-0.22509767,0
0.96630865,0.31152344,-0.29614258,0
0.9921875,0.236084,-0.30126953,0
0.9648438,0.21362305,-0.2241211,0
0.9746094,0.14648438,-0.19042969,0
1.0080566,0.14868164,-0.20043945,0
1.1264648,0.11206055,-0.26757813,0
1.0546875,0.10644531,-0.28295898,0
0.9172364,0.14624023,-0.22216798,0
0.6206055,0.24780275,-0.030029297,0
0.60424805,0.2590332,-0.004882813,0
0.6564942,0.26416016,0.024169922,0
0.7783203,0.23168947,-0.023193361,0
0.9848633,0.14648438,-0.09765625,0
0.99340826,0.11914063,-0.08666992,0
0.87719727,0.16284181,-0.052246097,0
0.9916992,0.1657715,-0.072021484,0
1.0446777,0.14135742,0.4223633,0
0.6894532,0.49243164,0.9904786,0
1.0627441,0.3334961,0.11279297,0
0.8432618,0.43115237,0.13696289,0
0.907959,0.51000977,0.3344727,0
1.168457,0.34692386,0.058105472,0
1.1469727,0.3486328,-0.14111328,0
0.9499512,0.19116211,-0.18945313,0
0.8635254,0.06762695,-0.1525879,0
0.9838868,0.04321289,-0.1555176,0
1.0446777,0.13549805,-0.1616211,0
1.0222168,0.22265625,-0.17773438,0
0.9255371,0.27978516,-0.15332033,0
0.9140625,0.29174805,-0.124267586,0
0.98217773,0.28955078,-0.16284181,0
1.0585938,0.26635742,-0.22241211,0
1.0517578,0.234375,-0.24291992,0
1.003418,0.1826172,-0.24121095,0
0.97021484,0.18725586,-0.22094727,0
0.96337897,0.20507813,-0.2055664,0
0.9140625,0.21655273,-0.2019043,0
0.9291992,0.19726564,-0.18432617,0
0.93042,0.19238281,-0.1772461,0
0.9216309,0.18652344,-0.1706543,0
0.9077149,0.18530273,-0.13745117,0
0.89868164,0.20092775,-0.123291016,0
0.91015625,0.20361328,-0.12036133,0
0.9575196,0.21533203,-0.11206055,0
0.958252,0.21875,-0.11279297,0
0.9787598,0.22802736,-0.107177734,0
0.9787598,0.22802736,-0.107177734,0
0.95605475,0.23779297,-0.099121094,0
0.94946295,0.23828126,-0.10156251,0
0.998291,0.23461916,-0.14233398,0
0.95947266,0.23046875,-0.16967773,0
0.94677734,0.22460938,-0.18554689,0
0.95703125,0.21899414,-0.19824219,0
1.1247559,0.20947266,-0.22680664,0
1.471924,0.17529298,-0.30908203,0
1.3276368,0.3212891,0.001464844,0
0.51660156,0.37573242,0.75439453,0
0.51464844,0.59716797,0.56884766,0
0.85546875,0.5270996,-0.050781254,0
1.145752,0.55493164,-0.044189457,0
1.119873,0.59814453,-0.11279297,0
0.9311524,0.21142578,-0.27685547,0
0.9311524,0.21142578,-0.27685547,0
0.883545,0.034423828,-0.006591797,0
0.8918457,0.05664063,0.046386722,0
0.89941406,0.12084961,0.034423828,0
0.9812012,0.21411134,-0.09033203,0
0.9267579,0.21386719,-0.11206055,0
0.93994147,0.236084,-0.10644531,0
0.9406739,0.1772461,-0.10571289,0
0.97094727,0.14746094,-0.09106445,0
0.9152832,0.19555664,-0.05126953,0
0.8581543,0.107666016,-0.08276367,0
1.0107422,0.08642578,-0.18701173,0
1.0107422,0.08642578,-0.18701173,0
1.0678711,0.18530273,-0.2536621,0
0.883545,0.22094727,-0.27563477,0
0.83862305,0.23852539,-0.25708008,0
0.7248535,0.2722168,-0.25390625,0
0.6750488,0.22265625,-0.28588867,0
0.52734375,-0.32714847,-0.35913086,0
0.18432617,0.18823242,-0.056152344,0
0.5024414,-0.42578125,-0.36572266,0
1.0517578,-0.30224612,-0.79199225,0
1.3000488,-0.005859375,-0.50805664,0
1.2773438,0.041748047,-0.5686035,0
1.0749512,0.015625,-0.609375,0
0.9938965,0.05737305,-0.3552246,0
0.79199225,-0.05493164,-0.21484376,0
0.8945313,-0.15112306,-0.18896484,1
1.126709,0.036376953,-0.17553711,1
0.7436524,-0.44433597,-0.3183594,1
1.1054688,-0.2421875,-0.3010254,1
0.7304688,-0.3046875,0.032714844,1
0.85278326,-0.5983887,-0.09082031,1
0.54711914,0.06982422,-0.18164063,1
1.3486328,0.52490234,-0.828125,1
1.3486328,0.52490234,-0.828125,1
1.6196289,0.30932617,-0.6105957,1
2.0112305,-0.5480957,-0.75219727,1
1.3933105,1.0515137,0.109375,1
1.8896484,0.68798834,1.7121583,1
2.194336,0.46044925,1.5849609,1
1.2053224,1.2929688,1.7575685,1
-0.099853516,-1.8371582,0.6254883,1
-3.307373,-0.7770996,-2.4924316,1
0.4150391,-0.9226074,-1.9655763,1
1.4260254,3.0075686,-2.989746,1
2.0498047,2.789795,-1.241211,1
0.0546875,-0.1555176,1.7314453,1
-1.6430664,-0.40063477,1.5986329,1
0.57006836,1.0651855,0.6435547,1
0.33325195,0.51416016,0.5695801,1
0.25,2.9047852,-0.07470703,1
-0.07592774,0.5908203,-0.15136719,0
-0.61181647,-0.25512695,0.08935547,0
-0.55493164,-0.51123047,0.08837891,0
-0.10498047,0.7128907,0.2932129,0
-0.35083008,-0.080078125,0.5722656,0
-0.19873048,-0.24951172,0.8041992,0
-0.38330078,0.46411136,0.86206055,0
-0.033447266,0.7426758,0.9875489,0
0.11547852,0.6433106,1.1640625,0
0.4655762,0.8845215,1.4138184,0
0.4655762,0.8845215,1.4138184,0
0.22924805,0.45605472,1.2558595,0
0.22924805,0.45605472,1.2558595,0
-0.001708984,0.3474121,0.9584961,0
-0.001708984,0.3474121,0.9584961,0
-0.081054695,0.41284183,0.69531256,0
-0.081054695,0.41284183,0.69531256,0
-0.1147461,0.4111328,0.5241699,0
-0.14501953,0.40112308,0.5131836,0
-0.14501953,0.40112308,0.5131836,0
-0.044677734,0.4387207,0.513916,0
0.048339844,0.66259766,0.9069825,0
0.07763672,0.6635742,1.0153809,0
0.05859375,0.58691406,1.0266113,0
0.023925783,0.5678711,1.0163574,0
0.023925783,0.5678711,1.0163574,0
-0.6262207,0.9201661,0.47973633,0
0.043457035,1.1337891,0.84228516,0
-0.055664063,0.42382815,0.5344238,0
-0.28588867,0.5275879,0.6171875,0
-0.028564453,0.7182617,0.6940918,0
0.41357425,0.5727539,0.57714844,0
0.41357425,0.5727539,0.57714844,0
0.40527344,0.90258795,0.97949225,0
0.3513184,0.31030276,0.78344727,0
0.5888672,0.21850587,0.62866217,0
0.5612793,0.35546875,0.3203125,0
0.4909668,0.15454102,0.19165039,0
0.4814453,0.15356445,0.22924805,0
0.61083984,-0.03125,0.18383789,0
1.0700684,0.1574707,0.1789551,0
1.0700684,0.1574707,0.1789551,0
1.1186523,0.22827148,0.16992188,0
1.0236816,0.8017578,-0.20751955,0
-0.10058594,-0.49902344,0.8110352,0
0.5102539,1.4987793,-0.46020508,0
1.9118652,-0.3615723,-0.5690918,0
1.3569337,0.39038086,-0.6591797,0
1.5256348,0.6303711,-0.2770996,0
0.88549805,0.8132325,0.45922852,0
0.90258795,-0.115722656,-0.46655273,0
0.7907715,0.01879883,-0.30615234,0
0.8935547,0.2421875,0.048828125,0
0.9919434,0.15234375,-0.14135742,0
1.1953125,-0.14453125,-0.39990234,0
1.3830566,-0.19262695,-0.56396484,0
1.7255859,0.13452148,-0.86938477,0
1.3535156,-0.12670898,-0.43701175,0
1.1923828,-0.63525397,-0.92236334,0
1.673584,-0.27856445,-0.20581055,0
0.8027344,0.03149414,0.01879883,0
1.0900879,-0.46362305,-0.42797852,0
1.1589355,-0.06542969,-0.73193365,0
1.157959,0.025878906,-0.8239746,0
0.9040528,-0.38647464,-0.83984375,0
0.8654785,-0.17944336,-0.5974121,0
0.70947266,-0.2529297,-0.36914063,0
0.65795904,-0.18725586,-0.24316406,0
0.62841797,-0.060791016,-0.13012695,0
0.60839844,-0.000732422,-0.11010742,0
0.6628418,0.18603516,-0.09472656,0
0.7810059,-0.03515625,-0.1484375,0
0.7810059,-0.03515625,-0.1484375,0
0.7973633,0.14575195,-0.13549805,0
0.8137207,0.16015625,-0.13208008,0
0.8381348,0.17382814,-0.13964844,0
0.83593756,0.1586914,-0.14331055,0
0.842041,0.15356445,-0.13012695,0
0.8486328,0.14770508,-0.1237793,0
0.8574219,0.13671875,-0.10424805,0
0.8640137,0.1418457,-0.09838867,0
0.87597656,0.14916992,-0.1003418,0
0.8937989,0.1616211,-0.10498047,0
0.87060547,0.17407227,-0.103515625,0
0.8664551,0.17626953,-0.11108399,0
1.0258789,0.17114258,-0.17358398,0
1.0495605,0.18969727,-0.19604492,0
0.8964844,0.28637695,-0.1147461,0
0.8618164,0.30249023,-0.028564453,0
0.8671875,0.30004886,-0.005859375,0
0.9453125,0.25219727,-0.037841797,0
1.0825195,0.21655273,-0.083740234,0
1.1091309,0.20117188,-0.087402344,0
0.98291016,0.2487793,-0.06201172,0
0.96875,0.25683594,-0.051513676,0
0.9770508,0.24487306,-0.04492188,0
0.95703125,0.23022462,-0.028808594,0
0.91552734,0.19995117,0.002441407,0
1.0070801,0.13012695,0.15014648,0
0.7307129,-0.03564453,0.28125,0
1.0568848,0.16748047,0.125,0
1.161377,0.3232422,0.1640625,0
1.1535645,0.38183594,0.1958008,0
1.0019531,0.37963867,0.06225586,0
1.0007324,0.2536621,-0.12646484,0
1.0898438,0.17358398,-0.16821289,0
1.1523438,0.11352539,-0.17089845,0
0.98681647,0.2211914,-0.15454102,0
0.98681647,0.2211914,-0.15454102,0
0.96435547,0.3017578,-0.1328125,0
0.9611817,0.27929688,-0.15942383,0
0.9206543,0.22509767,-0.14477539,0
0.911377,0.17529298,-0.1213379,0
0.9519043,0.18554689,-0.116210945,0
1.0197754,0.19921875,-0.115234375,0
1.0153809,0.20581055,-0.12792969,0
1.0041504,0.2109375,-0.14697266,0
0.95678717,0.23095705,-0.1586914,0
0.9450684,0.25073242,-0.15478517,0
0.94384766,0.24951172,-0.15429688,0
0.9018555,0.2463379,-0.14038086,0
0.93603516,0.21240234,-0.13964844,0
0.9506836,0.2241211,-0.1381836,0
0.9536133,0.23095705,-0.14233398,0
0.97998047,0.24658203,-0.14428711,0
0.982666,0.25976563,-0.12841797,0
0.98950195,0.26220703,-0.11206055,0
0.9968262,0.26391602,-0.099609375,0
0.98413086,0.2541504,-0.055908207,0
0.9851074,0.23803711,-0.045166016,0
0.95947266,0.21777345,-0.032226563,0
0.9311524,0.21362305,-0.026611328,0
0.9499512,0.21191408,-0.021972656,0
0.97753906,0.2023926,-0.025634766,0
1.0334473,0.20581055,-0.053466797,0
1.0024414,0.21777345,-0.07421875,0
0.9741211,0.22460938,-0.09570313,0
0.9741211,0.22460938,-0.09570313,0
1.0129395,0.25561523,-0.084472656,0
1.0783691,0.2023926,-0.07763672,0
1.2285156,0.10302735,0.0546875,0
1.0146484,0.23852539,0.22656251,0
0.7209473,0.35375977,0.30078128,0
0.7229004,0.34643555,0.30078128,0
0.80151373,0.4055176,0.2426758,0
0.8364258,0.29956055,0.20581055,0
0.8522949,0.31347656,0.16088867,0
0.9321289,0.3483887,0.09204102,0
0.9309082,0.3212891,0.08959961,0
0.92236334,0.3137207,0.0859375,0
0.89575195,0.26513672,0.07104492,0
0.9265137,0.17480469,0.028808594,0
0.9313965,0.13110352,0.019042969,0
0.85302734,0.16186523,-0.015625,0
0.85302734,0.16186523,-0.015625,0
0.8312988,0.18945313,-0.018310547,0
0.8312988,0.18945313,-0.018310547,0
0.9816895,0.1809082,-0.050781254,0
0.9816895,0.1809082,-0.050781254,0
1.1137695,0.22509767,-0.02368164,0
0.8581543,0.32543945,-0.010498048,0
0.8581543,0.32543945,-0.010498048,0
1.0783691,0.22192383,-0.11694337,0
1.0385742,0.234375,-0.10913086,0
0.98217773,0.26000977,-0.14282227,0
0.98217773,0.26000977,-0.14282227,0
0.96362305,0.28564453,-0.09570313,0
0.96362305,0.28564453,-0.09570313,0
1.0368652,0.26586914,-0.05102539,0
0.81542975,0.052001953,0.033203125,0
0.42602542,0.2680664,-0.5222168,0
0.66162115,-0.28515625,-1.6333008,0
1.046875,-0.16918945,-1.565918,1
0.8806153,-0.26464844,-1.1013184,1
1.1503906,0.08886719,-0.74218756,1
1.2290039,0.57299805,-0.38183594,1
1.1345215,0.87182623,-0.31933594,1
0.7670899,1.1374512,-0.22680664,1
0.91674805,0.9160156,-0.1352539,1
0.90893555,0.8732911,-0.16943361,1
0.4790039,0.1784668,-0.54956055,1
0.5678711,0.08325196,-0.4619141,1
-0.020019531,-1.286377,-0.46142578,1
-0.09375,-0.79467773,-0.5656738,1
0.663086,1.701172,0.64843756,1
2.059082,2.8757327,3.4816895,1
2.9384766,-2.1501465,-1.2895509,1
3.0598145,0.8647461,-0.65600586,1
3.5070803,2.1706543,-0.861084,1
2.713135,1.4680176,-0.4992676,1
1.6755372,1.682373,0.6201172,1
0.74145514,-0.053466797,-0.30419922,1
0.21801758,0.9040528,-0.21191408,1
0.4489746,0.36279297,0.14526367,1
-0.14672852,-0.058105472,-0.01123047,1
0.48217773,0.04248047,-0.28173828,1
0.29077148,0.23632813,0.1550293,1
0.29077148,0.23632813,0.1550293,0
-0.1394043,0.45825198,0.1213379,0
0.4074707,0.4243164,0.21362305,0
0.55688477,0.37231445,0.24951172,0
1.0515137,0.6010742,0.59155273,0
1.6049805,0.7453613,0.677002,0
1.5710449,0.7509766,0.80908203,0
1.5244141,0.82250977,1.005127,0
1.0117188,0.50024414,0.7631836,0
0.66625977,0.38891602,0.673584,0
0.5686035,0.3618164,0.6166992,0
0.42041016,0.23803711,0.41381836,0
0.4187012,0.09057618,0.39624023,0
0.17700195,0.11645508,0.17993164,0
0.23217773,0.16235352,0.27661133,0
0.39208984,0.21728516,0.47558594,0
0.545166,0.39282227,0.49731445,0
0.545166,0.39282227,0.49731445,0
0.80517584,0.46875,0.72900397,0
0.8674317,0.47558594,0.7631836,0
0.96435547,0.46875,0.861084,0
0.97998047,0.4150391,0.81152344,0
0.9008789,0.38256836,0.71508795,0
0.71533203,0.331543,0.53466797,0
0.6838379,0.32543945,0.45410156,0
0.66528326,0.33081058,0.42944336,0
0.65478516,0.34448242,0.3754883,0
0.7558594,0.43139648,0.36206055,0
0.83032227,0.41259766,0.36132813,0
0.66528326,0.4855957,0.26367188,0
0.91186523,0.53515625,0.3540039,0
0.83496094,0.49975586,0.28833008,0
0.7839356,0.47656253,0.33081058,0
0.9140625,0.42578125,0.29125977,0
0.8271485,0.3681641,0.25170898,0
0.8271485,0.3681641,0.25170898,0
0.8234864,0.37280273,0.29125977,0
0.8981934,0.4104004,0.26342773,0
0.8913574,0.38256836,0.23876953,0
0.9313965,0.55029297,0.14868164,0
0.9313965,0.55029297,0.14868164,0
0.87158203,0.5812988,0.21801758,0
0.87158203,0.5812988,0.21801758,0
0.9160156,0.49536133,0.14746094,0
0.9311524,0.4516602,0.11303711,0
0.95605475,0.392334,0.042236328,0
0.95605475,0.392334,0.042236328,0
2.2246094,-0.30908203,0.33422852,0
2.9250488,-0.34350586,-0.43261722,0
2.7993164,1.166748,-0.060546875,0
2.7993164,1.166748,-0.060546875,0
1.0876465,0.01879883,0.16064455,0
1.2436523,0.64184576,-0.51708984,0
1.2436523,0.64184576,-0.51708984,0
0.14990234,-0.03930664,-1.4602052,0
-0.6330567,0.33984375,-3.1674805,0
0.99902344,4.2229004,-4.697998,0
1.9992677,-1.4736328,-0.14868164,0
1.9619142,-2.1245117,0.18847658,0
0.8671875,-1.2128906,0.49072266,0
0.5432129,-0.4111328,0.08569336,0
0.6437988,-0.028076172,0.20336914,0
0.6437988,-0.028076172,0.20336914,0
0.56933594,-2.8828125,1.0236816,0
0.56933594,-2.8828125,1.0236816,0
1.0759277,-0.3840332,-0.027832031,0
1.4504395,-0.17138672,0.2192383,0
1.1130371,-0.25585938,-0.18774416,0
1.1022949,-0.18066406,-0.21777345,0
1.059082,-0.17480469,-0.2800293,0
0.4111328,-0.21386719,0.16625977,0
0.28393555,-0.14331055,0.2915039,0
2.7441406,0.78906256,-0.5202637,0
1.8273926,-0.06738281,-0.40917972,0
1.3564453,0.001953125,-0.28930664,0
1.295166,0.052734375,-0.2824707,0
1.1064453,-0.00390625,-0.2121582,0
0.97753906,-0.015380859,-0.09838867,0
0.89233404,-0.006347657,-0.03759766,0
0.85595703,0.015136719,-0.014892579,0
0.75268555,0.08203125,-0.04492188,0
0.75561523,0.095214844,-0.04125977,0
0.73559576,0.1105957,-0.049804688,0
0.76660156,0.110839844,-0.050781254,0
0.7443848,0.13623047,-0.05859375,0
0.72998047,0.19824219,-0.033935547,0
0.74145514,0.19750977,-0.033691406,0
0.8173828,0.18383789,-0.08300781,0
0.8129883,0.18627931,-0.083496094,0
0.83325195,0.19799806,-0.0690918,0
1.0068359,0.22436525,-0.19360353,0
0.84838873,0.23730469,-0.19970703,0
0.82299805,0.2614746,-0.21459961,0
0.82299805,0.2614746,-0.21459961,0
1.0131836,0.1940918,-0.36108398,0
0.98291016,0.31298828,-0.2939453,0
0.8562012,0.37329105,-0.092285156,0
0.81933594,0.3774414,-0.050781254,0
0.76831055,0.37353516,-0.014892579,0
0.9245606,0.24951172,-0.06958008,0
0.98583984,0.22802736,-0.07470703,0
1.0686035,0.19995117,-0.0625,0
1.0332031,0.1850586,-0.027832031,0
1.0332031,0.1850586,-0.027832031,0
0.94262695,0.19213869,0.0546875,0
0.93310547,0.1940918,0.06762695,0
0.9038086,0.19750977,0.08837891,0
0.94653326,0.1394043,0.15649414,0
0.94653326,0.1394043,0.15649414,0
0.96899414,-0.09448242,0.34692386,0
0.96899414,-0.09448242,0.34692386,0
0.89233404,0.71508795,0.055419922,0
0.84838873,0.6528321,0.051757813,0
0.8378906,0.532959,0.033691406,0
0.8378906,0.532959,0.033691406,0
0.8378906,0.532959,0.033691406,0
0.8378906,0.532959,0.033691406,0
0.91674805,0.38964844,0.041015625,0
1.0400391,0.22094727,-0.040283203,0
1.0556641,0.32226563,-0.20532228,0
0.96899414,0.2902832,-0.17993164,0
0.96362305,0.20361328,-0.23120117,0
0.9543457,0.20874023,-0.2175293,0
0.9277344,0.19702148,-0.19140626,0
0.9082031,0.20898439,-0.17626953,0
0.9069825,0.23364258,-0.1381836,0
0.93627936,0.18652344,-0.08764649,0
0.9846192,0.22363283,-0.071777344,0
0.958252,0.36962894,-0.042236328,0
0.96240234,0.41015625,-0.032958984,0
